timestamp_ms,ax,ay,az,gx,gy,gz,label
2588876,-0.8574,-0.4421,0.2850,0.9766,-0.7324,-0.6714,idle
2588886,-0.8577,-0.4406,0.2860,1.0376,-0.4883,-0.7935,idle
2588896,-0.8557,-0.4375,0.2870,0.9155,0.0000,-0.8545,idle
2588906,-0.8524,-0.4351,0.2867,1.0986,0.3662,-0.9155,idle
2588916,-0.8506,-0.4330,0.2872,1.2207,0.3662,-0.9766,idle
2588926,-0.8486,-0.4325,0.2876,1.5869,0.0610,-1.0376,idle
2588936,-0.8483,-0.4316,0.2889,1.7090,0.3052,-1.0376,idle
2588946,-0.8477,-0.4305,0.2897,2.0752,0.3662,-1.0986,idle
2588956,-0.8463,-0.4301,0.2904,2.5024,0.6104,-1.1597,idle
2588966,-0.8477,-0.4320,0.2915,2.8076,0.7324,-1.2817,idle
2588976,-0.8505,-0.4340,0.2921,3.3569,0.6714,-1.6479,idle
2588996,-0.8450,-0.4294,0.2916,4.1504,1.2817,-2.1362,idle
2589006,-0.8423,-0.4268,0.2936,4.3945,1.0986,-2.4414,idle
2589016,-0.8418,-0.4236,0.2935,4.9438,0.8545,-2.5635,idle
2589026,-0.8434,-0.4246,0.2938,5.4321,0.6104,-2.5635,idle
2589036,-0.8431,-0.4243,0.2946,6.2256,0.9155,-2.5024,idle
2589046,-0.8418,-0.4271,0.2937,6.7749,0.7935,-2.5635,idle
2589056,-0.8441,-0.4301,0.2927,6.9580,0.7935,-2.1973,idle
2589066,-0.8431,-0.4323,0.2910,7.0190,0.5493,-2.0752,idle
2589076,-0.8446,-0.4344,0.2906,7.0801,0.6714,-1.8921,idle
2589086,-0.8461,-0.4363,0.2902,6.8970,0.6104,-1.8311,idle
2589096,-0.8473,-0.4362,0.2888,6.2256,0.4883,-1.5869,idle
2589106,-0.8492,-0.4351,0.2889,5.7373,0.4883,-1.6479,idle
2589116,-0.8494,-0.4338,0.2891,5.7983,0.4272,-1.5869,idle
2589126,-0.8514,-0.4333,0.2874,5.6763,0.3052,-1.5869,idle
2589136,-0.8506,-0.4309,0.2863,5.4932,0.1221,-1.6479,idle
2589146,-0.8503,-0.4298,0.2877,5.4932,0.0610,-1.4648,idle
2589166,-0.8439,-0.4303,0.2904,5.7373,-0.5493,-1.4648,idle
2589176,-0.8428,-0.4324,0.2926,5.9204,-0.7935,-1.2817,idle
2589186,-0.8401,-0.4354,0.2928,5.7983,-0.9766,-1.2207,idle
2589196,-0.8365,-0.4364,0.2926,5.5542,-1.0376,-1.0986,idle
2589206,-0.8358,-0.4369,0.2916,4.7607,-1.5259,-0.7935,idle
2589216,-0.8328,-0.4349,0.2874,4.2114,-1.7090,-0.5493,idle
2589226,-0.8326,-0.4336,0.2869,3.7231,-1.9531,-0.5493,idle
2589236,-0.8373,-0.4346,0.2859,3.3569,-2.0752,-0.3052,idle
2589246,-0.8412,-0.4368,0.2855,3.3569,-2.2583,-0.2441,idle
2589256,-0.8464,-0.4419,0.2860,3.6011,-2.3193,-0.4272,idle
2589266,-0.8488,-0.4480,0.2861,3.2959,-2.6245,-0.3052,idle
2589276,-0.8409,-0.4490,0.2865,2.9297,-2.9907,-0.0610,idle
2589286,-0.8356,-0.4480,0.2870,2.5635,-3.3569,0.1221,idle
2589296,-0.8298,-0.4458,0.2859,2.1973,-3.7842,0.4272,idle
2589306,-0.8284,-0.4426,0.2848,1.8921,-3.9673,0.6714,idle
2589316,-0.8293,-0.4418,0.2830,1.0376,-4.5166,0.7935,idle
2589326,-0.8411,-0.4452,0.2823,0.1221,-5.2490,1.0376,idle
2589336,-0.8468,-0.4479,0.2834,-0.1221,-5.4932,1.2207,idle
2589346,-0.8485,-0.4493,0.2853,-0.6714,-5.8594,1.0986,idle
2589356,-0.8439,-0.4503,0.2821,-1.5869,-6.1646,1.3428,idle
2589366,-0.8385,-0.4520,0.2787,-1.9531,-6.7139,1.4038,idle
2589376,-0.8406,-0.4510,0.2802,-1.8921,-7.9956,2.0752,idle
2589396,-0.8326,-0.4565,0.2716,-3.1128,-8.9722,2.8687,idle
2589406,-0.8323,-0.4551,0.2701,-3.6011,-9.5215,3.1738,idle
2589416,-0.8348,-0.4521,0.2690,-4.2114,-10.1318,3.2349,idle
2589426,-0.8414,-0.4503,0.2711,-5.3711,-10.7422,3.3569,idle
2589436,-0.8468,-0.4485,0.2665,-6.9580,-11.4746,3.2349,idle
2589446,-0.8446,-0.4498,0.2567,-6.9580,-12.0239,3.3569,idle
2589456,-0.8430,-0.4503,0.2548,-6.7139,-12.5732,3.5400,idle
2589466,-0.8444,-0.4517,0.2529,-6.6528,-12.8784,3.6011,idle
2589476,-0.8448,-0.4553,0.2507,-6.8970,-12.6343,3.9062,idle
2589486,-0.8439,-0.4573,0.2480,-7.0801,-13.1836,4.2114,idle
2589496,-0.8419,-0.4624,0.2456,-7.8735,-14.1602,4.5166,idle
2589506,-0.8407,-0.4668,0.2438,-8.4229,-14.6484,4.6387,idle
2589516,-0.8373,-0.4695,0.2385,-9.1553,-15.0146,4.5776,idle
2589526,-0.8380,-0.4741,0.2324,-9.7046,-15.5640,4.8218,idle
2589536,-0.8373,-0.4784,0.2286,-10.0708,-16.2964,5.0659,idle
2589546,-0.8378,-0.4816,0.2245,-10.4370,-17.1509,5.4932,idle
2589566,-0.8347,-0.4893,0.2175,-12.0239,-19.6533,5.9814,idle
2589576,-0.8326,-0.4917,0.2130,-12.9395,-20.5078,6.0425,idle
2589586,-0.8300,-0.4928,0.2086,-13.7329,-21.9727,6.3477,idle
2589596,-0.8315,-0.4929,0.2078,-14.4653,-23.4985,6.5308,idle
2589606,-0.8351,-0.4913,0.2041,-15.6250,-26.0010,6.9580,idle
2589616,-0.8433,-0.4937,0.1974,-16.0522,-26.9165,7.3853,idle
2589626,-0.8450,-0.4939,0.1960,-16.2964,-27.7710,7.6294,idle
2589636,-0.8466,-0.4943,0.1943,-16.4795,-28.4424,7.8735,idle
2589646,-0.8468,-0.4949,0.1938,-16.7236,-29.1138,7.8735,idle
2589656,-0.8455,-0.4965,0.1895,-16.8457,-29.6631,7.9956,idle
2589666,-0.8462,-0.4989,0.1820,-17.7612,-30.5176,8.1177,idle
2589676,-0.8417,-0.4988,0.1809,-17.7612,-31.1279,8.1177,idle
2589686,-0.8428,-0.4972,0.1803,-17.7612,-31.2500,8.0566,idle
2589696,-0.8423,-0.4978,0.1796,-18.0664,-31.1890,8.1787,idle
2589706,-0.8405,-0.4971,0.1774,-18.1274,-31.0669,8.2397,idle
2589716,-0.8409,-0.4980,0.1754,-18.2495,-30.8228,8.1787,idle
2589736,-0.8387,-0.4991,0.1740,-17.3950,-30.1514,7.9346,idle
2589746,-0.8431,-0.5001,0.1727,-17.0898,-29.9683,7.7515,idle
2589756,-0.8483,-0.5000,0.1708,-16.7236,-29.4189,7.3242,idle
2589766,-0.8511,-0.4994,0.1686,-16.2354,-28.5645,7.0190,idle
2589776,-0.8555,-0.5006,0.1653,-14.8315,-26.3672,6.1035,idle
2589786,-0.8649,-0.5020,0.1565,-14.3433,-24.9023,5.5542,idle
2589796,-0.8652,-0.5032,0.1558,-13.6719,-23.5596,5.3711,idle
2589806,-0.8638,-0.5055,0.1537,-12.8174,-23.1323,5.3711,idle
2589816,-0.8630,-0.5101,0.1516,-12.2681,-22.7661,5.1880,idle
2589826,-0.8645,-0.5142,0.1509,-12.2681,-21.4233,4.9438,idle
2589836,-0.8646,-0.5133,0.1486,-12.6343,-17.6392,4.7607,idle
2589846,-0.8616,-0.5133,0.1492,-12.1460,-17.4561,4.8828,idle
2589856,-0.8643,-0.5134,0.1531,-12.2681,-16.3574,4.5776,idle
2589866,-0.8665,-0.5137,0.1542,-12.6953,-15.0757,4.5166,idle
2589876,-0.8656,-0.5127,0.1561,-13.3057,-12.8784,4.2114,idle
2589886,-0.8630,-0.5127,0.1552,-13.1836,-12.0850,3.9673,idle
2589896,-0.8551,-0.5073,0.1541,-12.6343,-11.2915,3.7842,idle
2589906,-0.8496,-0.5049,0.1531,-12.3291,-11.0474,3.3569,idle
2589916,-0.8481,-0.5035,0.1525,-12.0239,-10.1318,2.9907,idle
2589926,-0.8475,-0.5066,0.1503,-11.7798,-9.5215,2.6855,idle
2589936,-0.8464,-0.5087,0.1493,-11.5356,-8.7280,2.3804,idle
2589946,-0.8478,-0.5126,0.1479,-11.5967,-7.6904,1.6479,idle
2589966,-0.8461,-0.5200,0.1389,-11.8408,-7.0801,1.0376,idle
2589976,-0.8472,-0.5212,0.1383,-12.1460,-6.8359,0.9766,idle
2589986,-0.8488,-0.5192,0.1383,-12.3291,-6.5918,0.9155,idle
2589996,-0.8510,-0.5199,0.1396,-12.6343,-6.3477,0.6714,idle
2590006,-0.8497,-0.5212,0.1392,-13.6108,-5.9204,0.3662,idle
2590016,-0.8500,-0.5170,0.1367,-14.0991,-5.6763,0.1221,idle
2590026,-0.8499,-0.5140,0.1385,-14.5874,-5.7373,0.0610,idle
2590036,-0.8514,-0.5106,0.1401,-14.7705,-5.6763,0.1221,idle
2590046,-0.8523,-0.5110,0.1400,-14.9536,-5.4932,0.0000,idle
2590056,-0.8534,-0.5051,0.1403,-15.1978,-5.4321,0.0000,idle
2590066,-0.8552,-0.4995,0.1394,-15.0146,-4.6997,-0.3052,idle
2590076,-0.8563,-0.5005,0.1384,-15.0146,-4.3335,-0.4883,idle
2590086,-0.8547,-0.4998,0.1395,-15.4419,-4.2114,-0.7935,idle
2590096,-0.8539,-0.4984,0.1364,-15.8691,-3.9673,-0.9766,idle
2590106,-0.8557,-0.4999,0.1318,-16.2354,-3.9673,-1.0986,idle
2590116,-0.8604,-0.4993,0.1312,-16.2964,-4.2114,-1.2817,idle
2590136,-0.8606,-0.5005,0.1306,-17.3340,-4.7607,-1.5259,idle
2590146,-0.8607,-0.5002,0.1283,-17.8833,-5.0049,-1.4648,idle
2590156,-0.8612,-0.5000,0.1273,-18.6157,-5.1270,-1.5869,idle
2590166,-0.8621,-0.4998,0.1304,-19.4702,-5.4321,-1.5869,idle
2590176,-0.8643,-0.4967,0.1312,-20.6909,-5.7373,-1.6479,idle
2590186,-0.8685,-0.4915,0.1322,-21.5454,-5.9204,-1.7700,idle
2590196,-0.8668,-0.4882,0.1342,-22.0337,-5.8594,-1.9531,idle
2590206,-0.8663,-0.4865,0.1357,-22.2168,-5.9814,-1.9531,idle
2590216,-0.8672,-0.4849,0.1376,-22.2778,-5.6763,-1.9531,idle
2590226,-0.8672,-0.4841,0.1384,-22.3999,-5.3101,-2.2583,idle
2590236,-0.8666,-0.4849,0.1415,-22.6440,-4.2725,-2.5024,idle
2590246,-0.8661,-0.4893,0.1431,-22.8882,-4.0283,-2.3804,idle
2590256,-0.8667,-0.4899,0.1449,-23.0713,-3.7231,-2.5024,idle
2590266,-0.8679,-0.4893,0.1461,-23.4375,-3.5400,-2.7466,idle
2590276,-0.8700,-0.4879,0.1455,-23.9258,-3.2959,-2.9297,idle
2590286,-0.8750,-0.4849,0.1429,-24.1089,-2.8687,-3.2349,idle
2590306,-0.8910,-0.4687,0.1479,-25.1465,-2.0142,-3.7231,idle
2590316,-0.8927,-0.4631,0.1469,-25.3906,-1.4648,-3.7842,idle
2590326,-0.8987,-0.4578,0.1465,-25.8179,-0.8545,-3.7842,idle
2590336,-0.9023,-0.4565,0.1475,-26.0010,-0.3662,-3.3569,idle
2590346,-0.9014,-0.4540,0.1500,-26.6113,-0.5493,-2.3804,idle
2590356,-0.8971,-0.4486,0.1578,-26.7944,-0.6714,-2.0142,idle
2590366,-0.8944,-0.4438,0.1622,-26.8555,-0.8545,-1.6479,idle
2590376,-0.8948,-0.4382,0.1681,-27.1606,-0.6714,-1.3428,idle
2590386,-0.8915,-0.4308,0.1735,-26.9775,-0.6714,-1.1597,idle
2590396,-0.8873,-0.4248,0.1761,-26.7334,-0.9155,-1.0986,idle
2590406,-0.8812,-0.4198,0.1791,-24.7192,-1.4648,-1.0986,idle
2590416,-0.8722,-0.4135,0.1815,-23.5596,-2.0752,-1.1597,idle
2590426,-0.8726,-0.4159,0.1816,-22.6440,-2.3193,-1.0986,idle
2590436,-0.8644,-0.4194,0.1818,-21.4233,-2.3193,-1.0986,idle
2590446,-0.8604,-0.4233,0.1810,-19.8364,-2.3193,-0.9766,idle
2590456,-0.8596,-0.4274,0.1804,-18.4326,-2.1362,-0.6714,idle
2590466,-0.8601,-0.4374,0.1857,-17.3950,-2.0142,0.4272,idle
2590476,-0.8615,-0.4391,0.1860,-17.2729,-2.0752,1.2207,idle
2590486,-0.8627,-0.4391,0.1864,-17.2729,-2.1362,1.7700,idle
2590496,-0.8623,-0.4401,0.1890,-17.5781,-1.7700,2.3193,idle
2590506,-0.8635,-0.4375,0.1918,-17.3950,-1.7090,2.4414,idle
2590516,-0.8639,-0.4319,0.1971,-16.7847,-2.5635,2.8687,idle
2590536,-0.8752,-0.4364,0.2037,-15.3809,-1.4038,2.6855,idle
2590546,-0.8776,-0.4368,0.2052,-15.7471,-0.8545,2.6245,idle
2590556,-0.8794,-0.4384,0.2083,-15.6250,-0.7324,2.4414,idle
2590566,-0.8809,-0.4410,0.2120,-15.2588,-0.8545,2.2583,idle
2590576,-0.8781,-0.4423,0.2117,-15.8081,-0.8545,1.8921,idle
2590586,-0.8745,-0.4344,0.2125,-16.1743,-0.7935,1.4038,idle
2590596,-0.8718,-0.4268,0.2190,-15.9912,-1.3428,1.0986,idle
2590606,-0.8722,-0.4265,0.2148,-15.3198,-2.6855,0.9766,idle
2590616,-0.8749,-0.4233,0.2156,-15.9912,-2.6245,0.7935,idle
2590626,-0.8749,-0.4210,0.2159,-16.0522,-2.9907,0.4272,idle
2590636,-0.9060,-0.4188,0.2131,-13.3667,-5.3101,0.4883,idle
2590646,-0.8848,-0.4163,0.2133,-13.6719,-4.8828,0.2441,idle
2590656,-0.8904,-0.4156,0.2104,-14.4043,-3.8452,-0.1221,idle
2590666,-0.8928,-0.4116,0.2061,-15.7471,-2.5024,-0.6104,idle
2590676,-0.8842,-0.3959,0.2080,-15.8081,-1.9531,-0.8545,idle
2590686,-0.8850,-0.3926,0.2029,-12.4512,-5.3101,-0.3052,idle
2590706,-0.8920,-0.3809,0.1976,-13.0615,-2.7466,-1.0376,idle
2590716,-0.8882,-0.3807,0.1978,-12.0239,-3.5400,-0.9155,idle
2590726,-0.8878,-0.3801,0.2029,-10.4370,-5.3711,-0.5493,idle
2590736,-0.8911,-0.3834,0.1960,-8.7891,-5.7373,-0.1831,idle
2590746,-0.8998,-0.3862,0.1957,-9.9487,-1.8921,-0.9766,idle
2590756,-0.8982,-0.3754,0.2080,-10.1318,-0.6714,-1.1597,idle
2590766,-0.8879,-0.3729,0.2166,-8.7891,-1.2817,-1.1597,idle
2590776,-0.8824,-0.3760,0.2170,-6.2866,-2.8687,-1.0376,idle
2590786,-0.8807,-0.3770,0.2158,-4.9438,-2.8687,-0.9155,idle
2590796,-0.8804,-0.3754,0.2195,-5.2490,-1.4038,-1.0376,idle
2590806,-0.8763,-0.4056,0.2389,-6.5918,1.5259,-1.1597,idle
2590816,-0.8667,-0.3823,0.2502,-6.5918,2.4414,-1.1597,idle
2590826,-0.8629,-0.3882,0.2556,-6.4697,2.6245,-1.0376,idle
2590836,-0.8589,-0.3944,0.2584,-6.2256,2.6245,-0.9155,idle
2590846,-0.8600,-0.4012,0.2667,-6.2256,2.5024,-0.8545,idle
2590856,-0.8589,-0.4049,0.2725,-5.9204,1.8921,-0.1831,idle
2590876,-0.8657,-0.4202,0.2860,-6.7749,0.8545,-0.3052,idle
2590886,-0.8676,-0.4233,0.2908,-7.6904,0.4883,-0.1221,idle
2590896,-0.8724,-0.4244,0.2919,-8.5449,-0.3662,0.0610,idle
2590906,-0.8738,-0.4252,0.2887,-9.0942,-1.4648,0.1221,idle
2590916,-0.8750,-0.4208,0.2850,-11.5967,-1.0986,-0.4272,idle
2590926,-0.8850,-0.4102,0.2948,-11.4136,-1.5869,-0.5493,idle
2590936,-0.8868,-0.4070,0.2927,-11.1084,-2.5024,-0.7324,idle
2590946,-0.8877,-0.4025,0.2898,-11.3525,-2.6245,-0.9766,idle
2590956,-0.8867,-0.4008,0.2909,-11.4136,-2.5024,-1.2207,idle
2590966,-0.8848,-0.4026,0.2911,-11.1694,-2.1362,-1.2817,idle
2590976,-0.8821,-0.3988,0.2939,-10.8643,-2.3193,-1.4648,idle
2590986,-0.8716,-0.3906,0.2950,-10.0708,-4.0283,-1.4038,idle
2590996,-0.8684,-0.3842,0.2997,-10.1929,-3.7231,-1.4038,idle
2591006,-0.8629,-0.3861,0.2922,-9.1553,-5.2490,-1.1597,idle
2591016,-0.8608,-0.3855,0.2899,-8.9111,-5.3711,-1.1597,idle
2591026,-0.8593,-0.3894,0.2848,-8.7280,-5.0049,-1.1597,idle
2591036,-0.8630,-0.3922,0.2932,-10.5591,-1.3428,-0.9766,idle
2591046,-0.8580,-0.3945,0.2885,-10.3149,-2.0142,-0.5493,idle
2591056,-0.8585,-0.3977,0.2922,-10.7422,-1.9531,-0.2441,idle
2591066,-0.8660,-0.3998,0.2946,-10.7422,-2.2583,0.3052,idle
2591076,-0.8721,-0.3918,0.2913,-12.0239,-2.0752,0.6714,idle
2591086,-0.8761,-0.3838,0.2941,-13.4277,-2.0752,1.0986,idle
2591106,-0.8643,-0.3676,0.2968,-13.6719,-3.2959,1.8921,idle
2591116,-0.8566,-0.3641,0.3033,-13.3667,-3.2959,2.1973,idle
2591126,-0.8450,-0.3693,0.3082,-12.8784,-2.9297,2.1362,idle
2591136,-0.8386,-0.3809,0.3073,-12.0850,-3.1128,2.5024,idle
2591146,-0.8275,-0.3911,0.3066,-12.1460,-3.6621,3.3569,idle
2591156,-0.8223,-0.4097,0.3042,-12.2681,-4.6997,3.8452,idle
2591166,-0.8259,-0.4147,0.3029,-13.1836,-5.8594,3.7842,idle
2591176,-0.8302,-0.4146,0.3066,-14.0381,-6.6528,3.9673,idle
2591186,-0.8357,-0.4150,0.3021,-14.8315,-6.6528,3.9673,idle
2591196,-0.8417,-0.4132,0.2988,-15.7471,-6.4087,4.2114,idle
2591206,-0.8484,-0.4004,0.2980,-16.9678,-6.8970,4.3335,idle
2591216,-0.8522,-0.3987,0.2972,-16.6016,-7.2021,4.3945,idle
2591226,-0.8561,-0.3981,0.2977,-15.9912,-7.3242,4.5776,idle
2591236,-0.8569,-0.3976,0.2949,-15.0146,-7.3242,5.0049,idle
2591246,-0.8573,-0.3989,0.2913,-14.7705,-7.3242,5.3101,idle
2591256,-0.8536,-0.3967,0.2856,-14.4043,-7.3242,5.0659,idle
2591276,-0.8501,-0.3953,0.2708,-14.2822,-9.1553,4.5166,idle
2591286,-0.8558,-0.3943,0.2723,-14.6484,-9.8877,4.5166,idle
2591296,-0.8575,-0.3885,0.2749,-14.7705,-10.6201,4.2725,idle
2591306,-0.8578,-0.3806,0.2783,-14.4653,-10.6201,4.3335,idle
2591316,-0.8600,-0.3763,0.2781,-13.1836,-9.3384,4.2725,idle
2591326,-0.8673,-0.3680,0.2699,-12.2070,-8.6060,4.2725,idle
2591336,-0.8677,-0.3644,0.2654,-11.2305,-8.3618,4.0283,idle
2591346,-0.8671,-0.3633,0.2664,-10.3760,-8.4229,3.7842,idle
2591356,-0.8667,-0.3651,0.2682,-9.3384,-8.3008,3.6621,idle
2591366,-0.8652,-0.3682,0.2747,-8.4839,-8.3618,3.4180,idle
2591376,-0.8624,-0.3726,0.2791,-6.6528,-7.6294,3.3569,idle
2591386,-0.8547,-0.3829,0.2784,-6.1035,-7.1411,3.4180,idle
2591396,-0.8497,-0.3867,0.2788,-5.5542,-6.9580,3.6621,idle
2591406,-0.8479,-0.3892,0.2820,-4.9438,-6.8359,3.9673,idle
2591416,-0.8448,-0.3928,0.2844,-4.6997,-6.6528,4.1504,idle
2591426,-0.8407,-0.3977,0.2899,-4.6387,-6.5918,4.2114,idle
2591446,-0.8276,-0.4170,0.2986,-4.1504,-6.2866,5.7373,idle
2591456,-0.8243,-0.4215,0.3005,-4.0894,-6.2256,6.3477,idle
2591466,-0.8204,-0.4261,0.2986,-4.1504,-6.3477,6.9580,idle
2591476,-0.8186,-0.4316,0.2997,-4.2114,-6.7139,7.3242,idle
2591486,-0.8223,-0.4305,0.3011,-4.4556,-7.5684,8.6060,idle
2591506,-0.8567,-0.4301,0.2913,-6.5918,-7.8735,9.3384,idle
2591516,-0.8732,-0.4298,0.2946,-7.2632,-7.6904,9.5215,idle
2591526,-0.8881,-0.4242,0.2936,-7.2021,-7.6904,9.4604,idle
2591536,-0.9030,-0.4232,0.2861,-6.2866,-7.9346,9.5215,idle
2591546,-0.9153,-0.4189,0.2782,-5.0659,-6.4697,8.6060,idle
2591556,-0.9302,-0.4032,0.2716,-2.6855,-7.5073,8.1787,idle
2591566,-0.9446,-0.4089,0.2528,-0.1831,-8.9111,7.6904,idle
2591576,-0.9532,-0.4019,0.2468,-0.5493,-6.4697,6.0425,idle
2591586,-0.9583,-0.3954,0.2369,0.8545,-6.1646,5.0049,idle
2591596,-0.9554,-0.3921,0.2283,1.8921,-6.3477,3.8452,idle
2591606,-0.9315,-0.3800,0.2218,4.6387,-5.9814,1.2207,idle
2591616,-0.9081,-0.3787,0.2151,6.1646,-5.5542,-0.0610,idle
2591626,-0.8856,-0.3799,0.2112,7.7515,-4.8828,-0.8545,idle
2591636,-0.8679,-0.3804,0.2020,9.0332,-4.0283,-1.2207,idle
2591646,-0.8555,-0.3856,0.1947,9.8877,-3.2349,-1.3428,idle
2591656,-0.8524,-0.3926,0.1930,9.5215,-3.2349,-1.0986,idle
2591676,-0.8625,-0.3917,0.1794,7.6904,-3.9062,-0.7935,idle
2591686,-0.8728,-0.3954,0.1746,8.1787,-5.7983,-0.4272,idle
2591696,-0.8884,-0.3982,0.1694,8.0566,-6.1646,-0.5493,idle
2591706,-0.8977,-0.3984,0.1711,7.9956,-5.7983,-0.6714,idle
2591716,-0.8994,-0.3982,0.1776,11.0474,-9.7656,0.7324,idle
2591726,-0.9082,-0.4172,0.1794,7.0190,-4.2114,-0.1831,idle
2591736,-0.8972,-0.4084,0.1809,6.4697,-2.9907,-0.1221,idle
2591746,-0.8911,-0.4165,0.1758,7.2021,-2.7466,0.6104,idle
2591756,-0.8881,-0.4106,0.1738,7.0190,-2.8687,0.6104,idle
2591766,-0.8873,-0.4131,0.1755,7.2021,-2.9907,0.7324,idle
2591776,-0.8843,-0.4269,0.1757,7.3853,-2.8076,0.6104,idle
2591786,-0.8822,-0.4314,0.1708,7.0801,-2.5024,0.3662,idle
2591796,-0.8832,-0.4347,0.1735,6.8970,-2.4414,0.1221,idle
2591806,-0.8843,-0.4364,0.1770,6.9580,-2.3804,0.0000,idle
2591816,-0.8829,-0.4381,0.1749,7.3242,-2.0752,-0.0610,idle
2591826,-0.8828,-0.4415,0.1752,7.2021,-1.8921,-0.3052,idle
2591846,-0.8770,-0.4409,0.1617,5.7983,-2.6245,-0.0610,idle
2591856,-0.8751,-0.4403,0.1620,5.4932,-3.2959,0.0000,idle
2591866,-0.8788,-0.4415,0.1650,4.7607,-4.1504,0.1221,idle
2591876,-0.8788,-0.4409,0.1639,4.3335,-4.8218,0.3662,idle
2591886,-0.8792,-0.4392,0.1664,2.8076,-5.6763,0.6714,idle
2591896,-0.8821,-0.4307,0.1635,2.0752,-5.8594,0.9766,idle
2591906,-0.8799,-0.4277,0.1639,2.1362,-5.7373,1.3428,idle
2591916,-0.8767,-0.4236,0.1605,2.3804,-5.7373,1.6479,idle
2591926,-0.8757,-0.4209,0.1589,2.4414,-6.0425,1.7700,idle
2591936,-0.8718,-0.4194,0.1597,2.5635,-6.1035,1.5259,idle
2591946,-0.8787,-0.4210,0.1638,1.5869,-5.2490,1.0986,idle
2591956,-0.8804,-0.4216,0.1619,2.1973,-4.8218,1.3428,idle
2591966,-0.8879,-0.4282,0.1627,2.9297,-4.9438,1.7700,idle
2591976,-0.8890,-0.4308,0.1606,3.4790,-4.6997,1.8921,idle
2591986,-0.8895,-0.4299,0.1531,3.9062,-4.2114,2.0752,idle
2591996,-0.8872,-0.4270,0.1498,3.7842,-3.7231,2.0142,idle
2592006,-0.8904,-0.4281,0.1544,2.8687,-4.5776,1.7090,idle
2592016,-0.8893,-0.4319,0.1512,3.1738,-3.7842,1.7700,idle
2592026,-0.8906,-0.4296,0.1514,4.0894,-4.3945,1.7700,idle
2592036,-0.8943,-0.4336,0.1510,4.2114,-4.4556,1.6479,idle
2592046,-0.8956,-0.4370,0.1516,4.7607,-4.6387,1.7700,idle
2592056,-0.8900,-0.4391,0.1490,5.0049,-4.3335,1.7700,idle
2592076,-0.8832,-0.4384,0.1508,4.3335,-3.8452,1.7090,idle
2592086,-0.8849,-0.4452,0.1536,4.0894,-3.7842,1.5869,idle
2592096,-0.8861,-0.4482,0.1526,4.5166,-3.7231,1.9531,idle
2592106,-0.8839,-0.4480,0.1506,4.2114,-3.6011,1.7090,idle
2592116,-0.8813,-0.4453,0.1473,3.4180,-3.4790,1.1597,idle
2592126,-0.8781,-0.4487,0.1462,3.2349,-3.4790,0.9766,idle
2592136,-0.8809,-0.4497,0.1494,2.6855,-2.7466,1.0986,idle
2592146,-0.8824,-0.4492,0.1486,2.1362,-2.1362,0.9766,idle
2592156,-0.8816,-0.4506,0.1471,2.0752,-1.3428,1.1597,idle
2592166,-0.8811,-0.4468,0.1472,1.7700,-1.0986,1.3428,idle
2592176,-0.8846,-0.4474,0.1451,1.5259,-0.9766,1.6479,idle
2592186,-0.8767,-0.4377,0.1436,2.8687,-2.3804,2.5635,idle
2592196,-0.8933,-0.4469,0.1360,3.2349,-2.2583,2.3193,idle
2592206,-0.8901,-0.4608,0.1375,2.8687,-1.6479,2.0752,idle
2592216,-0.8855,-0.4596,0.1364,1.7700,1.1597,1.4038,idle
2592226,-0.8768,-0.4564,0.1404,1.8921,-1.0376,2.6245,idle
2592246,-0.8818,-0.4648,0.1251,6.1646,-1.8921,2.9907,idle
2592256,-0.8701,-0.4597,0.1270,5.6763,-1.4038,2.8076,idle
2592266,-0.8734,-0.4657,0.1272,4.9438,-0.5493,2.1973,idle
2592276,-0.8710,-0.4675,0.1296,5.3101,-1.0986,2.6855,idle
2592286,-0.8638,-0.4607,0.1320,5.8594,-2.0752,2.8076,idle
2592296,-0.8604,-0.4683,0.1311,6.6528,-2.5635,2.6245,idle
2592306,-0.8694,-0.4716,0.1282,7.1411,-2.6855,2.8687,idle
2592316,-0.8706,-0.4725,0.1255,7.0801,-2.6245,2.6245,idle
2592326,-0.8690,-0.4730,0.1235,7.1411,-2.5024,1.7700,idle
2592336,-0.8755,-0.4772,0.1248,7.2632,-1.8311,0.9155,idle
2592346,-0.8829,-0.4813,0.1218,7.9346,-0.0610,-0.4272,idle
2592356,-0.8898,-0.4783,0.1193,7.9956,1.2207,-0.8545,idle
2592366,-0.8926,-0.4780,0.1151,8.4229,2.1973,-1.2207,idle
2592376,-0.8943,-0.4706,0.1111,8.6670,3.0518,-1.4648,idle
2592386,-0.8949,-0.4653,0.1082,9.0332,3.6621,-2.0142,idle
2592396,-0.8971,-0.4590,0.1101,9.2773,3.7842,-2.5635,idle
2592416,-0.8899,-0.4415,0.1180,11.5967,4.0894,-2.7466,idle
2592426,-0.8859,-0.4347,0.1205,12.6953,4.0283,-2.7466,idle
2592436,-0.8855,-0.4388,0.1251,13.7939,4.3945,-2.6855,idle
2592446,-0.8804,-0.4354,0.1292,14.5264,4.9438,-2.8687,idle
2592456,-0.8789,-0.4369,0.1295,16.1743,5.9814,-3.4180,idle
2592466,-0.8705,-0.4510,0.1272,16.8457,6.2256,-3.4790,idle
2592476,-0.8643,-0.4504,0.1240,16.8457,6.3477,-3.8452,idle
2592486,-0.8636,-0.4552,0.1234,16.7847,5.9814,-4.2725,idle
2592496,-0.8668,-0.4640,0.1207,16.4185,5.4321,-4.5776,idle
2592506,-0.8704,-0.4731,0.1232,15.9912,4.7607,-4.4556,idle
2592516,-0.8754,-0.4756,0.1211,14.8926,4.4556,-4.7607,idle
2592536,-0.8760,-0.4778,0.1139,14.2822,4.0894,-4.8218,idle
2592546,-0.8789,-0.4810,0.1141,13.9160,3.8452,-4.6387,idle
2592556,-0.8763,-0.4838,0.1111,14.1602,3.7842,-4.4556,idle
2592566,-0.8776,-0.4868,0.1132,14.4043,4.8218,-4.3945,idle
2592576,-0.8486,-0.5017,0.1554,18.3716,6.8970,-2.5024,idle
2592586,-0.8779,-0.4995,0.1254,15.9912,1.4038,-3.1738,idle
2592596,-0.8683,-0.5006,0.1263,12.8174,2.1973,-3.1738,idle
2592606,-0.8645,-0.4906,0.1238,11.7187,4.0283,-3.2959,idle
2592616,-0.8639,-0.4880,0.1271,11.7187,4.2114,-2.9297,idle
2592626,-0.8607,-0.4811,0.1305,11.2305,2.4414,-3.1738,idle
2592646,-0.8649,-0.4739,0.1263,11.2915,3.3569,-3.6621,idle
2592656,-0.8657,-0.4756,0.1320,11.8408,3.2349,-3.6011,idle
2592666,-0.8669,-0.4778,0.1244,13.0005,2.0752,-3.4180,idle
2592676,-0.8779,-0.4790,0.1295,12.5732,2.9297,-4.0894,idle
2592686,-0.8806,-0.4745,0.1294,13.6719,5.0659,-3.9673,idle
2592696,-0.8805,-0.4784,0.1267,14.2822,5.4932,-3.6011,idle
2592706,-0.8820,-0.4609,0.1342,13.1226,8.8501,-4.3945,idle
2592716,-0.8745,-0.4622,0.1367,13.5498,10.9253,-4.7607,idle
2592726,-0.8678,-0.4583,0.1412,14.7705,11.7798,-4.7607,idle
2592736,-0.8634,-0.4646,0.1409,16.5405,12.3901,-4.5166,idle
2592746,-0.8551,-0.4713,0.1334,23.2544,13.1226,-3.1738,idle
2592756,-0.8550,-0.4862,0.1348,24.2310,13.2446,-3.4790,idle
2592766,-0.8557,-0.4994,0.1344,22.5220,17.0898,-4.6387,idle
2592776,-0.8527,-0.5010,0.1476,21.4844,19.4092,-5.7373,idle
2592786,-0.8569,-0.4934,0.1617,22.2168,20.4468,-6.4087,idle
2592796,-0.8761,-0.5168,0.1400,23.3154,20.3247,-8.8501,idle
2592816,-0.8810,-0.5022,0.1671,18.0054,25.2075,-11.1084,idle
2592826,-0.8757,-0.4968,0.1624,17.7612,25.6958,-11.9629,idle
2592836,-0.8802,-0.4907,0.1554,17.2119,26.0010,-12.0850,idle
2592846,-0.8772,-0.4962,0.1428,16.5405,25.9399,-11.8408,idle
2592856,-0.8772,-0.4976,0.1437,15.3809,23.3765,-9.5215,idle
2592866,-0.8730,-0.5100,0.1375,14.8315,19.3481,-7.4463,idle
2592876,-0.8713,-0.4967,0.1527,12.3901,18.2495,-6.3477,idle
2592886,-0.8654,-0.4948,0.1484,9.7046,17.4561,-5.3711,idle
2592896,-0.8613,-0.4751,0.1614,6.7749,17.1509,-4.6387,idle
2592906,-0.8573,-0.4471,0.1653,5.1270,16.9067,-4.2114,idle
2592916,-0.8541,-0.4171,0.1752,7.5684,8.1177,-2.3804,idle
2592926,-0.8391,-0.4054,0.1670,7.7515,7.1411,-3.2959,idle
2592936,-0.8386,-0.3959,0.1777,6.8359,9.8877,-4.3945,idle
2592946,-0.8462,-0.4056,0.1511,10.4370,9.2773,-3.7842,idle
2592956,-0.8456,-0.4128,0.1605,13.5498,8.5449,-4.9438,idle
2592966,-0.8578,-0.4161,0.1591,14.8315,10.0098,-7.2021,idle
2592986,-0.8945,-0.4425,0.1521,19.2261,10.4370,-6.4697,idle
2592996,-0.9070,-0.4526,0.1473,15.8081,10.0098,-6.7749,idle
2593006,-0.9150,-0.4500,0.1545,14.4043,10.8643,-7.5684,idle
2593016,-0.9210,-0.4409,0.1562,15.2588,11.1084,-8.3618,idle
2593026,-0.9253,-0.4435,0.1593,18.5547,11.3525,-9.5825,idle
2593036,-0.9209,-0.4330,0.1796,18.7988,13.9771,-11.4746,idle
2593046,-0.8723,-0.4164,0.1799,19.7144,16.1133,-11.7187,idle
2593056,-0.8795,-0.4269,0.1810,20.1416,18.0054,-10.1318,idle
2593066,-0.8770,-0.4259,0.1951,21.2402,18.0664,-9.4604,idle
2593076,-0.8616,-0.4237,0.1976,21.5454,17.8833,-8.9722,idle
2593086,-0.8419,-0.4083,0.1969,21.3013,20.3857,-8.4229,idle
2593096,-0.8635,-0.4336,0.1923,22.3389,18.3716,-7.6904,idle
2593106,-0.8516,-0.4379,0.2134,20.6909,18.9819,-7.7515,idle
2593116,-0.8538,-0.4403,0.2015,21.6064,16.9678,-7.5073,idle
2593126,-0.8801,-0.4366,0.1982,22.7661,14.2822,-7.6294,idle
2593136,-0.8687,-0.4374,0.1971,23.3765,12.2681,-7.7515,idle
2593146,-0.8895,-0.4546,0.1887,21.6675,12.6953,-7.8125,idle
2593156,-0.8773,-0.4465,0.1981,18.9819,15.6250,-9.0332,idle
2593166,-0.8630,-0.4436,0.1969,18.7988,14.5874,-8.9722,idle
2593176,-0.8640,-0.4440,0.2002,17.7002,14.3433,-8.4229,idle
2593186,-0.8572,-0.4397,0.1965,17.2729,13.0005,-7.4463,idle
2593196,-0.8466,-0.4446,0.1937,15.6250,14.6484,-6.4087,idle
2593216,-0.8733,-0.4413,0.2043,15.6250,12.5732,-5.1270,idle
2593226,-0.8850,-0.4449,0.1898,15.7471,11.9629,-5.3711,idle
2593236,-0.8834,-0.4397,0.1996,14.0991,13.9160,-6.4697,idle
2593246,-0.8864,-0.4175,0.2012,13.6108,15.1978,-7.2021,idle
2593256,-0.8975,-0.4103,0.1985,16.3574,11.2915,-7.3853,idle
2593266,-0.8938,-0.4150,0.1907,16.5405,10.8643,-7.4463,idle
2593276,-0.8975,-0.4126,0.1970,15.8691,10.9253,-7.5073,idle
2593286,-0.8966,-0.4159,0.1864,15.4419,11.3525,-7.5684,idle
2593296,-0.8907,-0.4099,0.2043,14.5264,14.2212,-7.9346,idle
2593306,-0.8702,-0.4000,0.2024,15.7471,13.6108,-7.7515,idle
2593316,-0.8713,-0.3983,0.1998,16.9678,13.2446,-6.5308,idle
2593326,-0.8689,-0.4072,0.1969,17.2119,12.6953,-6.2866,idle
2593336,-0.8704,-0.4146,0.2147,16.7236,12.2070,-4.8828,idle
2593346,-0.8622,-0.4033,0.2063,16.7236,11.1694,-4.7607,idle
2593356,-0.8704,-0.3990,0.2053,14.1602,13.3667,-6.1646,idle
2593366,-0.8828,-0.3904,0.2170,12.6953,16.2964,-7.0190,idle
2593386,-0.9005,-0.3821,0.2184,14.2822,15.8691,-7.2021,idle
2593396,-0.9117,-0.3833,0.2103,14.9536,14.4653,-7.3242,idle
2593406,-0.9148,-0.3783,0.2081,14.4653,13.9771,-7.3242,idle
2593416,-0.9205,-0.3660,0.1958,13.3057,11.3525,-7.0801,idle
2593426,-0.9243,-0.3678,0.1815,12.7563,8.5449,-7.8735,idle
2593436,-0.9281,-0.3660,0.1752,11.5967,9.3994,-8.3008,idle
2593446,-0.9283,-0.3512,0.1884,11.5356,10.9863,-9.2773,idle
2593456,-0.9214,-0.3478,0.1986,14.0991,11.5356,-10.2539,idle
2593466,-0.9108,-0.3463,0.2098,15.5640,11.7187,-10.7422,idle
2593476,-0.8990,-0.3497,0.2236,16.9067,12.6953,-10.9253,idle
2593486,-0.8889,-0.3892,0.2528,20.4468,16.4185,-10.8643,idle
2593496,-0.8661,-0.3877,0.2633,21.6675,18.0664,-10.4980,idle
2593506,-0.8485,-0.4026,0.2745,22.5830,18.8599,-10.1318,idle
2593516,-0.8370,-0.4243,0.2798,23.4375,19.0430,-9.3994,idle
2593526,-0.8296,-0.4343,0.2764,23.9868,18.7988,-8.6670,idle
2593536,-0.8268,-0.4419,0.2772,23.8037,18.3716,-7.6294,idle
2593556,-0.8491,-0.4554,0.2734,21.9727,13.3057,-5.7373,idle
2593566,-0.8561,-0.4512,0.2714,21.4233,11.7187,-5.4321,idle
2593576,-0.8657,-0.4446,0.2698,20.6909,10.5591,-5.1880,idle
2593586,-0.8719,-0.4330,0.2687,19.8975,9.4604,-5.0659,idle
2593596,-0.8760,-0.4219,0.2679,18.7378,8.2397,-4.8218,idle
2593606,-0.8752,-0.3988,0.2637,17.3340,7.9956,-4.9438,idle
2593616,-0.8701,-0.3905,0.2622,16.8457,8.1177,-5.1270,idle
2593626,-0.8652,-0.3871,0.2661,15.6860,8.5449,-5.4932,idle
2593636,-0.8621,-0.3813,0.2656,15.2588,9.0942,-5.5542,idle
2593646,-0.8611,-0.3771,0.2665,15.5640,9.2163,-5.5542,idle
2593656,-0.8636,-0.3770,0.2708,16.1743,9.9487,-5.6763,idle
2593666,-0.8677,-0.3771,0.2750,16.4185,10.3149,-5.6763,idle
2593676,-0.8696,-0.3776,0.2759,16.9067,10.9253,-5.4932,idle
2593686,-0.8727,-0.3784,0.2778,17.4561,11.4136,-5.1880,idle
2593696,-0.8737,-0.3778,0.2770,17.8223,11.7187,-5.0049,idle
2593706,-0.8743,-0.3783,0.2787,18.1274,12.3291,-4.8828,idle
2593716,-0.8666,-0.3824,0.2766,18.3105,12.8784,-4.5166,idle
2593726,-0.8619,-0.3826,0.2766,18.6157,12.3901,-4.1504,idle
2593736,-0.8604,-0.3805,0.2806,18.4326,12.0239,-3.8452,idle
2593746,-0.8635,-0.3817,0.2784,18.2495,11.4746,-3.7842,idle
2593756,-0.8644,-0.3885,0.2738,17.8223,10.4980,-3.6011,idle
2593766,-0.8688,-0.3893,0.2797,16.0522,11.7798,-3.2349,idle
2593786,-0.8729,-0.3895,0.2819,15.3809,9.8267,-2.8687,idle
2593796,-0.8704,-0.3921,0.2834,15.1367,9.3994,-2.6245,idle
2593806,-0.8662,-0.3917,0.2837,14.8315,9.7046,-2.3193,idle
2593816,-0.8627,-0.3922,0.2827,14.4043,9.8877,-1.9531,idle
2593826,-0.8601,-0.3934,0.2823,13.3057,8.9722,-1.5259,idle
2593836,-0.8474,-0.3953,0.2821,12.6343,8.7891,-1.4038,idle
2593846,-0.8458,-0.3945,0.2834,12.2070,7.9956,-1.3428,idle
2593856,-0.8429,-0.3948,0.2859,11.7798,7.1411,-1.2817,idle
2593866,-0.8414,-0.3917,0.2881,10.8032,6.7139,-1.2207,idle
2593876,-0.8430,-0.3898,0.2941,10.0098,6.6528,-1.0986,idle
2593886,-0.8455,-0.3873,0.2981,8.8501,6.3477,-0.6104,idle
2593896,-0.8530,-0.3881,0.2950,8.8501,6.2866,-0.1831,idle
2593906,-0.8568,-0.3901,0.2892,8.8501,6.4087,0.3052,idle
2593916,-0.8585,-0.3965,0.2810,9.0942,6.1646,0.9155,idle
2593926,-0.8566,-0.3981,0.2786,10.0708,5.0049,1.5259,idle
2593936,-0.8529,-0.3995,0.2719,12.8174,2.1362,3.4790,idle
2593956,-0.8651,-0.4161,0.2598,11.7187,0.7935,3.2349,idle
2593966,-0.8708,-0.4177,0.2544,10.8032,1.2817,3.1128,idle
2593976,-0.8766,-0.4191,0.2491,11.5356,0.3052,3.4790,idle
2593986,-0.8909,-0.4222,0.2472,11.9019,-0.2441,3.6011,idle
2593996,-0.8979,-0.4199,0.2448,11.4746,0.7324,3.7842,idle
2594006,-0.9009,-0.4111,0.2437,11.5967,1.1597,4.0283,idle
2594016,-0.8984,-0.4143,0.2384,11.5356,1.4648,4.5166,idle
2594026,-0.8938,-0.4186,0.2297,11.5356,1.4038,5.0049,idle
2594036,-0.8918,-0.4244,0.2235,11.0474,1.3428,5.2490,idle
2594046,-0.8866,-0.4297,0.2220,10.7422,1.2207,5.4932,idle
2594056,-0.8774,-0.4308,0.2135,9.7046,0.6714,5.9814,idle
2594066,-0.8599,-0.4336,0.2109,9.2163,0.1221,6.1035,idle
2594076,-0.8555,-0.4368,0.2109,8.6060,-0.1831,5.7983,idle
2594086,-0.8533,-0.4409,0.2137,8.0566,-0.4883,5.6152,idle
2594096,-0.8524,-0.4427,0.2170,7.8125,-0.6714,5.5542,idle
2594106,-0.8585,-0.4463,0.2190,7.2021,-0.4272,5.1880,idle
2594116,-0.8729,-0.4550,0.2211,6.4087,-0.2441,4.6387,idle
2594126,-0.8784,-0.4554,0.2205,5.8594,-0.3662,4.5166,idle
2594136,-0.8831,-0.4562,0.2190,5.6152,-0.3052,4.4556,idle
2594146,-0.8855,-0.4575,0.2147,5.3101,-0.4883,4.2725,idle
2594156,-0.8850,-0.4541,0.2161,5.1270,0.1221,4.2114,idle
2594166,-0.8798,-0.4536,0.2167,5.3711,0.9766,4.3945,idle
2594176,-0.8658,-0.4534,0.2219,5.2490,0.9766,4.3945,idle
2594186,-0.8594,-0.4546,0.2258,5.0659,1.3428,4.6387,idle
2594196,-0.8555,-0.4551,0.2273,5.0049,1.7700,4.8218,idle
2594206,-0.8528,-0.4563,0.2253,5.0049,1.7700,4.8828,idle
2594216,-0.8514,-0.4603,0.2218,4.5776,1.5869,4.6997,idle
2594226,-0.8577,-0.4698,0.2178,3.4790,0.6714,3.9673,idle
2594236,-0.8640,-0.4786,0.2163,2.6245,0.6714,3.2959,idle
2594246,-0.8624,-0.4821,0.2112,2.3804,0.0000,3.0518,idle
2594256,-0.8574,-0.4845,0.2133,1.8921,-0.4883,2.5635,idle
2594266,-0.8540,-0.4877,0.2145,1.4648,-0.7324,2.1362,idle
2594276,-0.8501,-0.4843,0.2229,0.8545,0.0000,1.8311,idle
2594286,-0.8490,-0.4845,0.2189,0.4272,-0.7324,2.0752,idle
2594296,-0.8522,-0.4846,0.2261,-0.0610,-0.9766,1.7090,idle
2594306,-0.8528,-0.4852,0.2284,-0.6714,-0.6104,1.4038,idle
2594316,-0.8485,-0.4824,0.2312,-0.8545,0.3662,0.9155,idle
2594326,-0.8467,-0.4795,0.2327,-0.9155,1.1597,0.5493,idle
2594336,-0.8458,-0.4760,0.2332,-0.9766,1.8311,0.3052,idle
2594356,-0.8438,-0.4744,0.2291,-1.8921,2.8076,0.1221,idle
2594366,-0.8395,-0.4735,0.2222,-2.0142,2.9297,-0.1221,idle
2594376,-0.8381,-0.4768,0.2181,-1.5869,2.3193,-0.2441,idle
2594386,-0.8418,-0.4799,0.2150,-0.8545,2.1362,-0.1221,idle
2594396,-0.8444,-0.4794,0.2134,0.6714,2.3804,-0.1831,idle
2594406,-0.8480,-0.4854,0.2175,1.2817,2.7466,-0.1831,idle
2594416,-0.8507,-0.4875,0.2151,1.4648,2.9297,-0.3052,idle
2594426,-0.8514,-0.4895,0.2142,1.1597,3.0518,-0.6104,idle
2594436,-0.8500,-0.4911,0.2141,1.2207,2.6855,-0.7935,idle
2594446,-0.8488,-0.4946,0.2123,1.4648,2.5635,-0.9155,idle
2594456,-0.8479,-0.4916,0.2163,1.7090,2.0142,-0.7935,idle
2594466,-0.8418,-0.4910,0.2184,2.0142,1.9531,-0.7324,idle
2594476,-0.8384,-0.4875,0.2217,1.8921,1.8921,-0.6714,idle
2594486,-0.8409,-0.4851,0.2217,1.5869,1.8921,-0.6104,idle
2594496,-0.8397,-0.4792,0.2225,0.9155,2.1973,-0.6714,idle
2594506,-0.8400,-0.4767,0.2242,0.6104,1.9531,-0.4883,idle
2594526,-0.8392,-0.4707,0.2299,0.4272,1.6479,-0.3662,idle
2594536,-0.8423,-0.4687,0.2322,0.4272,1.5869,-0.4272,idle
2594546,-0.8441,-0.4687,0.2314,0.7324,1.5869,-0.3662,idle
2594556,-0.8440,-0.4709,0.2322,0.9155,1.4038,-0.3662,idle
2594566,-0.8450,-0.4749,0.2316,1.4648,1.5869,-0.5493,idle
2594576,-0.8451,-0.4762,0.2308,1.3428,1.6479,-0.4272,idle
2594586,-0.8467,-0.4768,0.2313,1.7700,1.6479,-0.1831,idle
2594596,-0.8473,-0.4781,0.2325,1.8921,1.9531,0.0000,idle
2594606,-0.8469,-0.4794,0.2311,1.4648,2.1973,-0.0610,idle
2594616,-0.8475,-0.4797,0.2311,1.0376,2.8687,0.1221,idle
2594626,-0.8473,-0.4801,0.2284,0.4272,3.6011,0.4883,idle
2594636,-0.8458,-0.4802,0.2272,0.3052,3.7231,0.6714,idle
2594646,-0.8445,-0.4779,0.2245,-0.0610,3.6011,0.9766,idle
2594656,-0.8480,-0.4777,0.2240,-0.3052,3.6011,1.1597,idle
2594666,-0.8483,-0.4755,0.2235,-0.4272,3.6011,1.0986,idle
2594676,-0.8527,-0.4744,0.2231,-0.2441,3.3569,1.3428,idle
2594686,-0.8500,-0.4725,0.2300,-0.1831,3.6621,2.1973,idle
2594696,-0.8446,-0.4757,0.2373,-0.0610,4.1504,2.8076,idle
2594706,-0.8390,-0.4786,0.2443,0.3662,4.7607,3.4180,idle
2594716,-0.8318,-0.4812,0.2494,0.6104,5.1270,3.7842,idle
2594726,-0.8256,-0.4865,0.2535,0.7935,5.0659,4.1504,idle
2594736,-0.8218,-0.4890,0.2563,0.7935,4.3945,4.0283,idle
2594756,-0.8175,-0.4924,0.2642,0.9766,3.4180,3.4790,idle
2594766,-0.8187,-0.4940,0.2622,1.2207,2.5024,3.0518,idle
2594776,-0.8259,-0.4954,0.2592,1.0986,1.7700,2.5024,idle
2594786,-0.8298,-0.4927,0.2542,0.9766,0.7935,1.7700,idle
2594796,-0.8337,-0.4888,0.2494,0.4272,-0.6104,0.4883,idle
2594806,-0.8434,-0.4812,0.2397,0.4883,-0.7324,0.1831,idle
2594816,-0.8455,-0.4749,0.2382,0.7935,-0.7324,0.0000,idle
2594826,-0.8453,-0.4701,0.2366,1.1597,-0.6714,-0.3662,idle
2594836,-0.8446,-0.4670,0.2355,1.5869,-0.3052,-0.4272,idle
2594846,-0.8438,-0.4672,0.2347,2.2583,0.0610,-0.4272,idle
2594856,-0.8433,-0.4718,0.2329,3.2959,0.4272,-0.3662,idle
2594866,-0.8435,-0.4753,0.2336,3.7231,0.5493,-0.5493,idle
2594876,-0.8423,-0.4792,0.2358,3.7231,0.7935,-0.6104,idle
2594886,-0.8457,-0.4827,0.2365,3.7231,1.0986,-0.6714,idle
2594896,-0.8469,-0.4852,0.2384,3.6621,1.2817,-0.6714,idle
2594906,-0.8466,-0.4866,0.2393,3.6011,1.1597,-0.5493,idle
2594926,-0.8398,-0.4879,0.2488,3.1128,0.9155,0.0610,idle
2594936,-0.8380,-0.4886,0.2511,2.8076,0.9155,0.1221,idle
2594946,-0.8336,-0.4868,0.2533,2.2583,1.0986,0.1831,idle
2594956,-0.8308,-0.4869,0.2549,2.2583,1.0376,0.3662,idle
2594966,-0.8298,-0.4869,0.2567,1.0376,0.7935,0.1221,idle
2594976,-0.8265,-0.4861,0.2526,0.5493,0.6714,-0.1831,idle
2594986,-0.8278,-0.4855,0.2521,0.4272,0.4272,-0.2441,idle
2594996,-0.8289,-0.4854,0.2516,0.3052,0.2441,-0.3662,idle
2595006,-0.8309,-0.4857,0.2524,0.7324,0.0610,-0.5493,idle
2595016,-0.8329,-0.4863,0.2517,0.7324,0.0000,-0.4883,idle
2595026,-0.8335,-0.4860,0.2504,0.4883,0.1221,-0.7935,idle
2595036,-0.8380,-0.4860,0.2485,0.1831,0.4272,-0.8545,idle
2595046,-0.8365,-0.4850,0.2473,0.2441,0.3052,-0.8545,idle
2595056,-0.8357,-0.4822,0.2476,0.1831,0.5493,-0.8545,idle
2595066,-0.8363,-0.4813,0.2471,0.3052,0.3052,-0.9155,idle
2595076,-0.8361,-0.4797,0.2457,0.1831,0.1221,-1.0986,idle
2595096,-0.8392,-0.4790,0.2465,0.6714,0.0000,-1.0986,idle
2595106,-0.8403,-0.4785,0.2476,0.8545,0.0610,-1.0986,idle
2595116,-0.8395,-0.4785,0.2467,0.8545,0.0610,-1.0986,idle
2595126,-0.8408,-0.4789,0.2474,0.8545,0.0610,-1.0986,idle
2595136,-0.8390,-0.4779,0.2469,0.7935,0.5493,-0.9155,idle
2595146,-0.8384,-0.4774,0.2483,0.7324,0.5493,-0.9155,idle
2595156,-0.8379,-0.4779,0.2487,0.9766,0.6714,-1.0376,idle
2595166,-0.8351,-0.4780,0.2478,0.9155,0.6104,-0.9766,idle
2595176,-0.8374,-0.4797,0.2469,1.1597,0.4883,-1.0376,idle
2595186,-0.8365,-0.4811,0.2483,1.1597,-0.0610,-1.0986,idle
2595196,-0.8378,-0.4819,0.2489,1.0986,0.0000,-1.0376,idle
2595206,-0.8365,-0.4823,0.2489,0.9155,0.0000,-0.9766,idle
2595216,-0.8356,-0.4823,0.2509,0.8545,-0.1221,-0.9766,idle
2595226,-0.8353,-0.4845,0.2523,0.6714,-0.1831,-0.9766,idle
2595236,-0.8354,-0.4830,0.2510,0.5493,-0.0610,-0.9155,idle
2595246,-0.8367,-0.4813,0.2502,0.6714,-0.0610,-0.9155,idle
2595256,-0.8356,-0.4811,0.2512,0.6714,-0.4883,-0.9155,idle
2595266,-0.8356,-0.4816,0.2524,0.6104,-0.6714,-0.9766,idle
2595276,-0.8347,-0.4813,0.2522,0.4883,-0.4883,-0.9766,idle
2595286,-0.8336,-0.4821,0.2526,0.4272,-0.4272,-0.9155,idle
2595296,-0.8324,-0.4823,0.2521,0.6104,-0.3662,-0.8545,idle
2595306,-0.8331,-0.4834,0.2523,0.5493,-0.4883,-0.9155,idle
2595326,-0.8309,-0.4845,0.2496,0.3662,-0.7935,-0.9766,idle
2595336,-0.8322,-0.4849,0.2496,0.1221,-0.9766,-0.9766,idle
2595346,-0.8325,-0.4835,0.2493,-0.1221,-1.0376,-0.9766,idle
2595356,-0.8330,-0.4821,0.2493,-0.1221,-0.9155,-0.9766,idle
2595366,-0.8334,-0.4814,0.2500,-0.1221,-1.1597,-0.9155,idle
2595376,-0.8335,-0.4797,0.2493,-0.1831,-1.2207,-0.9766,idle
2595386,-0.8354,-0.4790,0.2483,-0.1221,-1.0986,-0.9766,idle
2595396,-0.8363,-0.4790,0.2496,0.0610,-1.0376,-0.7935,idle
2595406,-0.8369,-0.4811,0.2499,0.1831,-1.0986,-0.9155,idle
2595416,-0.8372,-0.4806,0.2488,0.0610,-0.9766,-0.9155,idle
2595426,-0.8376,-0.4799,0.2468,0.0610,-1.0986,-1.1597,idle
2595436,-0.8381,-0.4786,0.2478,-0.0610,-1.1597,-1.1597,idle
2595446,-0.8381,-0.4762,0.2460,0.1831,-1.1597,-1.2207,idle
2595456,-0.8387,-0.4764,0.2462,0.2441,-1.1597,-1.2207,idle
2595466,-0.8400,-0.4764,0.2472,0.2441,-1.1597,-1.1597,idle
2595476,-0.8413,-0.4764,0.2446,0.2441,-0.9766,-1.1597,idle
2595496,-0.8401,-0.4779,0.2439,0.4883,-0.6104,-1.1597,idle
2595506,-0.8402,-0.4769,0.2428,0.6714,-0.7324,-1.0986,idle
2595516,-0.8424,-0.4780,0.2429,0.6714,-0.6104,-1.1597,idle
2595526,-0.8422,-0.4763,0.2417,0.6714,-0.7935,-1.1597,idle
2595536,-0.8430,-0.4767,0.2417,1.0376,-0.6104,-1.1597,idle
2595546,-0.8433,-0.4750,0.2428,1.3428,-0.4272,-1.1597,idle
2595556,-0.8427,-0.4767,0.2424,1.2817,-0.3662,-1.0986,idle
2595566,-0.8435,-0.4760,0.2426,1.4648,-0.1831,-1.1597,idle
2595576,-0.8445,-0.4766,0.2429,1.7090,0.0610,-1.0986,idle
2595586,-0.8423,-0.4764,0.2416,1.7700,-0.0610,-1.0986,idle
2595596,-0.8417,-0.4778,0.2454,1.6479,0.3052,-1.0376,idle
2595606,-0.8381,-0.4755,0.2456,1.7090,0.3662,-0.9766,idle
2595616,-0.8383,-0.4755,0.2467,1.5869,0.4272,-1.0376,idle
2595626,-0.8392,-0.4785,0.2466,1.5259,0.3052,-1.0376,idle
2595636,-0.8370,-0.4788,0.2452,1.4648,0.3052,-1.1597,idle
2595646,-0.8386,-0.4802,0.2444,1.5869,0.5493,-0.9766,idle
2595666,-0.8406,-0.4786,0.2427,1.2817,0.1831,-0.9766,idle
2595676,-0.8413,-0.4801,0.2429,1.1597,0.2441,-0.9155,idle
2595686,-0.8406,-0.4771,0.2423,1.0986,0.1831,-0.9155,idle
2595696,-0.8403,-0.4752,0.2413,1.0986,0.4272,-0.7935,idle
2595706,-0.8406,-0.4769,0.2432,1.2207,0.1831,-0.6714,idle
2595716,-0.8406,-0.4808,0.2443,1.2207,0.1831,-0.5493,idle
2595726,-0.8403,-0.4827,0.2448,1.2207,0.1831,-0.5493,idle
2595736,-0.8402,-0.4822,0.2458,0.9155,0.3052,-0.6104,idle
2595746,-0.8387,-0.4811,0.2456,1.0376,0.3662,-0.7324,idle
2595756,-0.8387,-0.4812,0.2467,0.9766,0.3052,-0.7324,idle
2595766,-0.8389,-0.4799,0.2466,0.7935,0.2441,-0.8545,idle
2595776,-0.8364,-0.4785,0.2467,0.8545,0.1221,-0.9155,idle
2595786,-0.8380,-0.4785,0.2452,0.9155,0.3052,-0.9155,idle
2595796,-0.8381,-0.4774,0.2456,1.1597,0.3662,-1.0376,idle
2595806,-0.8384,-0.4773,0.2456,1.0986,0.4272,-0.9766,idle
2595816,-0.8374,-0.4758,0.2463,1.0376,0.4272,-0.9766,idle
2595826,-0.8362,-0.4767,0.2458,1.4038,0.3052,-1.0376,idle
2595836,-0.8363,-0.4785,0.2468,1.2817,0.4883,-0.9766,idle
2595846,-0.8370,-0.4786,0.2455,1.5259,0.6104,-1.0376,idle
2595856,-0.8375,-0.4795,0.2452,1.4038,0.4883,-1.0376,idle
2595866,-0.8391,-0.4799,0.2456,1.2207,0.3052,-0.9766,idle
2595876,-0.8376,-0.4794,0.2451,1.1597,0.3662,-1.0376,idle
2595896,-0.8398,-0.4799,0.2460,1.2817,0.4272,-0.8545,idle
2595906,-0.8368,-0.4806,0.2456,1.3428,0.5493,-0.9766,idle
2595916,-0.8375,-0.4803,0.2462,1.2207,0.5493,-0.8545,idle
2595926,-0.8378,-0.4797,0.2463,1.1597,0.5493,-0.6714,idle
2595936,-0.8358,-0.4800,0.2458,1.0986,0.4272,-0.6714,idle
2595946,-0.8369,-0.4818,0.2450,1.0986,0.3662,-0.6104,idle
2595956,-0.8380,-0.4818,0.2457,0.9766,0.4883,-0.6104,idle
2595966,-0.8373,-0.4811,0.2458,0.9766,0.3662,-0.5493,idle
2595976,-0.8361,-0.4811,0.2474,1.0376,0.2441,-0.5493,idle
2595986,-0.8352,-0.4816,0.2472,0.9766,0.1221,-0.4883,idle
2595996,-0.8367,-0.4800,0.2472,0.8545,0.1831,-0.4272,idle
2596006,-0.8372,-0.4800,0.2467,0.7935,0.1831,-0.4883,idle
2596016,-0.8370,-0.4814,0.2476,0.7935,0.1221,-0.4272,idle
2596026,-0.8367,-0.4819,0.2482,0.7324,0.1221,-0.6104,idle
2596036,-0.8365,-0.4828,0.2465,0.6714,-0.0610,-0.6104,idle
2596046,-0.8400,-0.4823,0.2472,0.4883,-15.6250,-0.5493,idle
2596066,-0.8391,-0.4813,0.2463,0.1221,-0.0610,-0.8545,idle
2596076,-0.8413,-0.4807,0.2477,-0.0610,0.0610,-0.7324,idle
2596086,-0.8387,-0.4792,0.2467,-0.0610,-0.0610,-0.7935,idle
2596096,-0.8394,-0.4789,0.2461,-0.0610,0.1221,-0.6714,idle
2596106,-0.8383,-0.4788,0.2462,-0.2441,0.3052,-0.8545,idle
2596116,-0.8384,-0.4788,0.2452,-0.1831,0.1221,-0.7935,idle
2596126,-0.8386,-0.4797,0.2460,-0.1831,0.0610,-0.7935,idle
2596136,-0.8373,-0.4775,0.2460,-0.0610,0.0000,-0.9766,idle
2596146,-0.8383,-0.4752,0.2474,-0.0610,-0.1221,-0.9766,idle
2596156,-0.8381,-0.4745,0.2474,-0.0610,0.0610,-0.9766,idle
2596166,-0.8374,-0.4745,0.2465,0.4272,0.1831,-0.8545,idle
2596176,-0.8368,-0.4766,0.2455,0.4883,0.3052,-0.7935,idle
2596186,-0.8381,-0.4767,0.2454,0.4272,0.1831,-0.8545,idle
2596196,-0.8387,-0.4767,0.2439,0.4883,0.2441,-0.7935,idle
2596206,-0.8373,-0.4773,0.2449,0.6104,0.2441,-0.6714,idle
2596216,-0.8395,-0.4781,0.2452,0.5493,0.2441,-0.4883,idle
2596236,-0.8395,-0.4797,0.2452,0.6104,0.2441,-0.5493,idle
2596246,-0.8394,-0.4803,0.2437,0.6714,0.2441,-0.4883,idle
2596256,-0.8391,-0.4801,0.2435,0.3662,0.0610,-0.4272,idle
2596266,-0.8397,-0.4814,0.2443,0.3662,0.0610,-0.3662,idle
2596276,-0.8389,-0.4807,0.2456,0.4272,0.0000,-0.5493,idle
2596286,-0.8387,-0.4794,0.2474,-0.1221,-0.2441,-0.4883,idle
2596296,-0.8374,-0.4811,0.2507,-0.4883,-0.3662,-0.5493,idle
2596306,-0.8354,-0.4810,0.2472,-0.7935,-0.1221,-0.5493,idle
2596316,-0.8337,-0.4806,0.2439,-0.9155,-0.1831,-0.6104,idle
2596326,-0.8347,-0.4816,0.2444,-0.4883,-0.6104,-0.7324,idle
2596336,-0.8352,-0.4816,0.2450,-0.3662,-0.7935,-0.7935,idle
2596346,-0.8368,-0.4802,0.2444,-0.4883,-0.6714,-0.6714,idle
2596356,-0.8374,-0.4810,0.2462,-0.3662,-0.6104,-0.6104,idle
2596366,-0.8375,-0.4806,0.2437,-0.3662,-0.8545,-0.6104,idle
2596376,-0.8361,-0.4812,0.2452,-0.3662,-0.7324,-0.6714,idle
2596386,-0.8364,-0.4796,0.2471,-0.3662,-0.8545,-0.7935,idle
2596396,-0.8359,-0.4816,0.2433,-0.7935,-0.7935,-0.6104,idle
2596406,-0.8372,-0.4823,0.2424,-0.5493,-0.8545,-0.4883,idle
2596416,-0.8370,-0.4813,0.2411,-0.4883,-0.9155,-0.3662,idle
2596426,-0.8387,-0.4816,0.2410,-0.4272,-1.0376,-0.3662,idle
2596436,-0.8378,-0.4813,0.2423,-0.4272,-1.1597,-0.3052,idle
2596446,-0.8395,-0.4817,0.2433,-0.2441,-1.0376,-0.3052,idle
2596466,-0.8392,-0.4812,0.2432,-0.0610,-0.6104,-0.1221,idle
2596476,-0.8391,-0.4799,0.2437,-0.2441,-0.5493,-0.1221,idle
2596486,-0.8373,-0.4786,0.2427,-0.2441,-0.6104,-0.2441,idle
2596496,-0.8390,-0.4784,0.2429,-0.0610,-0.3662,-0.1831,idle
2596506,-0.8376,-0.4789,0.2434,0.0000,-0.3052,-0.1221,idle
2596516,-0.8379,-0.4799,0.2443,0.1831,-0.2441,-0.2441,idle
2596526,-0.8385,-0.4818,0.2458,0.3662,-0.1221,-0.1831,idle
2596536,-0.8364,-0.4800,0.2451,0.4883,0.1831,-0.3052,idle
2596546,-0.8367,-0.4795,0.2449,0.6104,0.1221,-0.3662,idle
2596556,-0.8365,-0.4801,0.2437,0.4883,0.1221,-0.3052,idle
2596566,-0.8364,-0.4818,0.2438,0.9155,0.1831,-0.2441,idle
2596576,-0.8380,-0.4847,0.2454,1.0986,0.1831,-0.2441,idle
2596586,-0.8367,-0.4841,0.2444,1.0376,0.0000,-0.3662,idle
2596596,-0.8362,-0.4850,0.2440,0.8545,0.1831,-0.4272,idle
2596606,-0.8362,-0.4860,0.2439,0.9766,0.0000,-0.3052,idle
2596616,-0.8361,-0.4861,0.2451,0.9155,-0.0610,-0.4272,idle
2596636,-0.8365,-0.4877,0.2444,0.6714,0.2441,-0.4883,idle
2596646,-0.8369,-0.4875,0.2446,0.7324,0.1221,-0.4883,idle
2596656,-0.8363,-0.4868,0.2440,0.7324,-0.0610,-0.7324,idle
2596666,-0.8362,-0.4863,0.2440,0.6104,-0.0610,-0.7324,idle
2596676,-0.8357,-0.4847,0.2438,0.2441,-0.3662,-0.7324,idle
2596686,-0.8352,-0.4825,0.2467,0.2441,-0.1831,-0.6714,idle
2596696,-0.8339,-0.4814,0.2461,0.3662,0.0000,-0.6714,idle
2596706,-0.8328,-0.4819,0.2462,0.3662,-0.1221,-0.6714,idle
2596716,-0.8333,-0.4823,0.2473,0.4883,0.0000,-0.6104,idle
2596726,-0.8340,-0.4829,0.2462,0.4883,-0.1221,-0.6714,idle
2596736,-0.8334,-0.4824,0.2449,0.6714,-0.1831,-0.6104,idle
2596746,-0.8369,-0.4836,0.2449,0.5493,-0.2441,-0.6714,idle
2596756,-0.8367,-0.4846,0.2450,0.3052,-0.0610,-0.7324,idle
2596766,-0.8361,-0.4835,0.2449,0.3052,0.0610,-0.6714,idle
2596776,-0.8357,-0.4845,0.2444,0.6714,0.3052,-0.6104,idle
2596786,-0.8352,-0.4854,0.2452,0.5493,0.0610,-0.7324,idle
2596796,-0.8376,-0.4862,0.2441,0.2441,0.0000,-0.6714,idle
2596806,-0.8370,-0.4857,0.2448,0.1831,0.0000,-0.6104,idle
2596816,-0.8364,-0.4851,0.2450,0.1831,0.0610,-0.6714,idle
2596826,-0.8368,-0.4845,0.2456,0.3662,0.0000,-0.6104,idle
2596836,-0.8352,-0.4834,0.2461,0.1831,0.1221,-0.6714,idle
2596846,-0.8358,-0.4827,0.2451,0.2441,0.0000,-0.7324,idle
2596856,-0.8369,-0.4830,0.2451,0.5493,-0.1221,-0.6714,idle
2596866,-0.8362,-0.4829,0.2454,0.6714,0.0000,-0.6714,idle
2596876,-0.8352,-0.4840,0.2460,0.6714,0.2441,-0.7324,idle
2596886,-0.8329,-0.4827,0.2466,0.4272,0.1831,-0.6714,idle
2596896,-0.8345,-0.4833,0.2458,0.4883,0.1831,-0.7935,idle
2596906,-0.8340,-0.4846,0.2456,0.7324,0.1221,-0.8545,idle
2596916,-0.8336,-0.4850,0.2437,0.6104,0.0000,-0.7935,idle
2596926,-0.8351,-0.4834,0.2450,0.3662,0.1831,-0.7935,idle
2596936,-0.8347,-0.4846,0.2450,0.3662,0.0610,-0.7324,idle
2596946,-0.8358,-0.4846,0.2435,0.4272,-0.0610,-0.7324,idle
2596956,-0.8357,-0.4851,0.2446,0.3662,0.0610,-0.6714,idle
2596966,-0.8364,-0.4852,0.2448,0.3662,-0.1831,-0.7324,idle
2596976,-0.8367,-0.4855,0.2460,0.3662,-0.1221,-0.6714,idle
2596986,-0.8363,-0.4840,0.2449,0.3052,-0.1831,-0.6714,idle
2596996,-0.8365,-0.4841,0.2443,0.0000,0.0000,-0.7324,idle
2597006,-0.8364,-0.4828,0.2451,0.1221,-0.1221,-0.7935,idle
2597016,-0.8358,-0.4839,0.2446,0.1831,-0.0610,-0.6714,idle
2597036,-0.8380,-0.4819,0.2441,0.0000,0.0610,-0.6714,idle
2597046,-0.8372,-0.4827,0.2445,0.0610,0.0610,-0.5493,idle
2597056,-0.8369,-0.4839,0.2440,-0.1221,0.0610,-0.5493,idle
2597066,-0.8359,-0.4828,0.2451,-0.1221,0.0610,-0.6104,idle
2597076,-0.8362,-0.4827,0.2451,0.0000,0.0000,-0.4272,idle
2597086,-0.8340,-0.4829,0.2461,0.2441,-0.0610,-0.3662,idle
2597096,-0.8344,-0.4841,0.2456,0.1221,0.0610,-0.3052,idle
2597106,-0.8361,-0.4843,0.2454,0.0610,-0.0610,-0.3052,idle
2597116,-0.8362,-0.4851,0.2460,0.1221,-0.1221,-0.4272,idle
2597126,-0.8353,-0.4857,0.2458,0.0610,0.0000,-0.3662,idle
2597136,-0.8350,-0.4877,0.2478,-0.3662,-0.2441,-0.3662,idle
2597146,-0.8389,-0.4880,0.2462,-0.3052,-0.2441,-0.4272,idle
2597156,-0.8392,-0.4886,0.2471,-0.4272,-0.2441,-0.6104,idle
2597166,-0.8396,-0.4885,0.2468,-0.7935,-0.4272,-0.6714,idle
2597176,-0.8378,-0.4877,0.2462,-0.5493,-0.2441,-0.7324,idle
2597186,-0.8372,-0.4889,0.2460,-0.5493,-0.2441,-0.8545,idle
2597206,-0.8436,-0.4921,0.2430,-0.7935,-0.5493,-1.0986,idle
2597216,-0.8467,-0.4938,0.2428,-0.7935,-0.6714,-1.1597,idle
2597226,-0.8472,-0.4944,0.2428,-1.0986,-0.9155,-1.2207,idle
2597236,-0.8436,-0.4915,0.2429,-1.4648,-0.6714,-1.2817,idle
2597246,-0.8363,-0.4849,0.2465,-2.3193,0.1831,-1.2207,idle
2597256,-0.8488,-0.4894,0.2496,-2.3193,-0.1831,-1.2207,idle
2597266,-0.8303,-0.4722,0.2495,-1.4038,-0.5493,-1.2817,idle
2597276,-0.8256,-0.4727,0.2446,-1.3428,-0.2441,-1.2817,idle
2597286,-0.8330,-0.4800,0.2458,-2.1973,0.3052,-1.3428,idle
2597296,-0.8304,-0.4716,0.2577,-3.5400,1.8921,-1.6479,idle
2597306,-0.8387,-0.4863,0.2428,0.6714,-3.1128,-1.0986,idle
2597316,-0.8518,-0.5000,0.2343,-0.1221,-1.7090,-1.2817,idle
2597326,-0.8402,-0.4954,0.2424,-2.0752,1.0986,-1.8921,idle
2597336,-0.8417,-0.4810,0.2533,-2.5024,2.6855,-1.6479,idle
2597346,-0.8298,-0.4795,0.2356,0.5493,-2.6855,-0.9766,idle
2597356,-0.8359,-0.4825,0.2382,2.4414,-5.1880,-0.7324,idle
2597366,-0.8433,-0.4899,0.2324,-0.3052,-2.0752,-1.0986,idle
2597376,-0.8434,-0.4760,0.2468,-7.0190,3.7842,-2.8687,idle
2597386,-0.8320,-0.4651,0.2489,-7.9956,5.2490,-3.2959,idle
2597396,-0.8182,-0.4458,0.2561,-3.4180,2.5024,-1.9531,idle
2597406,-0.8179,-0.4626,0.2349,2.1973,-3.9062,-0.9155,idle
2597416,-0.8413,-0.4761,0.2489,-14.1602,2.6855,-3.0518,idle
2597436,-0.8223,-0.4543,0.2532,-0.4272,0.6714,-2.6855,idle
2597446,-0.8198,-0.4585,0.2487,1.8311,-1.4038,-1.5869,idle
2597456,-0.8325,-0.4728,0.2512,2.2583,-1.1597,-1.1597,idle
2597466,-0.8372,-0.4703,0.2520,1.8311,-0.0610,-0.9766,idle
2597476,-0.8387,-0.4796,0.2529,1.8311,0.3662,0.4272,idle
2597486,-0.8503,-0.4928,0.2496,2.2583,-1.2817,1.1597,idle
2597496,-0.8726,-0.4989,0.2460,2.0752,-1.0376,1.0376,idle
2597506,-0.8618,-0.4801,0.2385,1.5259,0.3052,-0.1831,idle
2597516,-0.9329,-0.5455,0.2296,1.3428,1.2207,-1.0986,idle
2597526,-0.8148,-0.4047,0.2509,0.3052,2.5024,-1.5259,idle
2597536,-0.8199,-0.4546,0.2571,-0.0610,0.1831,-1.3428,idle
2597546,-0.8295,-0.4617,0.2600,0.1221,0.0610,-0.9766,idle
2597556,-0.8324,-0.4614,0.2446,0.6714,-0.6714,-0.7324,idle
2597566,-0.8314,-0.4606,0.2566,-0.6104,0.7324,-0.8545,idle
2597576,-0.8385,-0.4781,0.2461,0.7324,-2.2583,-0.1221,idle
2597586,-0.8464,-0.4813,0.2501,0.2441,0.5493,1.1597,idle
2597606,-0.8447,-0.4731,0.2516,-1.6479,1.2207,0.7324,idle
2597616,-0.8390,-0.4706,0.2527,-0.9766,0.7935,0.6714,idle
2597626,-0.8367,-0.4718,0.2543,-0.6714,-0.5493,0.7324,idle
2597636,-0.8365,-0.4742,0.2505,-0.6104,-1.7700,0.5493,idle
2597646,-0.8372,-0.4725,0.2527,-1.3428,-0.0610,-0.0610,idle
2597656,-0.8361,-0.4792,0.2546,-1.2817,-0.0610,0.0610,idle
2597666,-0.8370,-0.4792,0.2559,-1.5869,0.3662,0.1831,idle
2597676,-0.8389,-0.4801,0.2532,-1.8311,1.0376,0.4272,idle
2597686,-0.8385,-0.4773,0.2548,-1.7090,1.2207,0.5493,idle
2597696,-0.8375,-0.4773,0.2552,-1.7090,1.2817,0.4272,idle
2597706,-0.8369,-0.4789,0.2556,-1.0986,-0.0610,0.9155,idle
2597716,-0.8358,-0.4811,0.2539,-0.9155,-0.6714,1.1597,idle
2597726,-0.8350,-0.4789,0.2540,-1.2207,-0.6104,1.2207,idle
2597736,-0.8322,-0.4773,0.2537,-1.4038,-0.3662,1.4038,idle
2597746,-0.8313,-0.4775,0.2537,-1.5869,-0.6104,1.5869,idle
2597756,-0.8287,-0.4760,0.2540,-1.7700,-0.7935,1.7090,idle
2597776,-0.8395,-0.4771,0.2532,-1.7090,-2.0752,2.1973,idle
2597786,-0.8409,-0.4781,0.2506,-1.5869,-2.2583,2.2583,idle
2597796,-0.8429,-0.4802,0.2502,-1.6479,-2.1973,2.1973,idle
2597806,-0.8444,-0.4781,0.2506,-2.0142,-1.6479,2.0142,idle
2597816,-0.8452,-0.4772,0.2502,-2.8687,-0.0610,1.7090,idle
2597826,-0.8387,-0.4758,0.2534,-2.6245,0.0000,1.6479,idle
2597836,-0.8369,-0.4777,0.2502,-2.3193,-0.3052,1.5869,idle
2597846,-0.8358,-0.4766,0.2517,-2.4414,0.3662,1.4648,idle
2597856,-0.8354,-0.4731,0.2521,-1.8921,0.3662,1.4648,idle
2597866,-0.8339,-0.4728,0.2513,-1.3428,-0.6104,1.6479,idle
2597876,-0.8365,-0.4763,0.2500,-1.2207,-0.6714,1.4648,idle
2597886,-0.8370,-0.4778,0.2523,-1.8921,0.0610,1.3428,idle
2597896,-0.8323,-0.4778,0.2516,-1.4038,-0.1221,1.4038,idle
2597906,-0.8322,-0.4807,0.2520,-0.7324,-0.8545,1.5259,idle
2597916,-0.8340,-0.4829,0.2509,-0.7324,-1.0376,1.6479,idle
2597926,-0.8365,-0.4847,0.2498,-1.4648,-0.7324,1.2817,idle
2597936,-0.8296,-0.4836,0.2551,-2.3804,-0.1831,0.5493,idle
2597946,-0.8265,-0.4824,0.2539,-1.4038,-0.9766,0.9155,idle
2597956,-0.8256,-0.4860,0.2535,-0.5493,-2.1973,1.1597,idle
2597966,-0.8280,-0.4891,0.2531,-0.5493,-2.3804,1.0986,idle
2597976,-0.8302,-0.4926,0.2534,-1.0376,-1.8921,1.0376,idle
2597986,-0.8292,-0.4967,0.2527,-1.4038,-2.0142,0.9766,idle
2598006,-0.8245,-0.4896,0.2555,-3.7231,-1.2817,0.7935,idle
2598016,-0.8234,-0.4933,0.2548,-2.3193,-3.2959,1.5259,idle
2598026,-0.8237,-0.4963,0.2549,-2.4414,-3.7231,1.8311,idle
2598036,-0.8224,-0.4971,0.2544,-2.7466,-3.4790,1.8311,idle
2598046,-0.8256,-0.4987,0.2520,-3.7231,-3.0518,1.8311,idle
2598056,-0.8260,-0.4950,0.2523,-3.7842,-3.4180,1.7700,idle
2598066,-0.8291,-0.4949,0.2516,-3.9673,-3.7231,1.9531,idle
2598076,-0.8334,-0.4974,0.2500,-5.2490,-3.1128,1.8311,idle
2598086,-0.8296,-0.4889,0.2559,-7.0190,-1.8311,1.4038,idle
2598096,-0.8256,-0.4839,0.2567,-6.0425,-2.6245,1.6479,idle
2598106,-0.8259,-0.4882,0.2532,-3.7231,-5.7373,2.4414,idle
2598116,-0.8287,-0.4904,0.2493,-3.9673,-5.4932,2.2583,idle
2598126,-0.8306,-0.4910,0.2498,-3.8452,-5.1270,2.1973,idle
2598136,-0.8303,-0.4907,0.2498,-3.6621,-4.8828,2.0752,idle
2598146,-0.8312,-0.4880,0.2501,-3.2959,-5.0659,2.0752,idle
2598156,-0.8340,-0.4905,0.2448,-3.1128,-4.8828,2.0142,idle
2598176,-0.8356,-0.4894,0.2451,-3.4790,-4.4556,2.2583,idle
2598186,-0.8352,-0.4886,0.2422,-3.2959,-4.9438,2.3193,idle
2598196,-0.8378,-0.4880,0.2415,-4.2725,-3.7842,2.0142,idle
2598206,-0.8401,-0.4889,0.2423,-5.0659,-3.4790,2.2583,idle
2598216,-0.8356,-0.4836,0.2476,-5.4932,-2.6855,1.7700,idle
2598226,-0.8293,-0.4819,0.2516,-3.2349,-4.9438,2.2583,idle
2598236,-0.8363,-0.4872,0.2504,-2.8687,-4.7607,2.2583,idle
2598246,-0.8351,-0.4849,0.2501,-3.3569,-2.9297,1.8921,idle
2598256,-0.8318,-0.4835,0.2528,-3.5400,-2.2583,1.6479,idle
2598266,-0.8262,-0.4838,0.2546,-2.1362,-3.6011,1.8311,idle
2598276,-0.8275,-0.4886,0.2501,-0.2441,-5.2490,2.2583,idle
2598286,-0.8270,-0.4951,0.2498,0.1221,-5.0659,2.1973,idle
2598296,-0.8270,-0.4952,0.2482,0.0610,-4.9438,2.1973,idle
2598306,-0.8280,-0.4993,0.2435,-0.7324,-4.6997,2.1362,idle
2598316,-0.8318,-0.5007,0.2443,-2.1362,-4.2114,2.0752,idle
2598326,-0.8320,-0.5005,0.2438,-3.8452,-2.7466,1.5869,idle
2598346,-0.8322,-0.4893,0.2426,-3.7231,-3.6011,1.5869,idle
2598356,-0.8334,-0.4893,0.2423,-2.5635,-5.0659,1.9531,idle
2598366,-0.8389,-0.4946,0.2390,-2.4414,-4.6997,1.9531,idle
2598376,-0.8413,-0.4908,0.2396,-3.5400,-2.6855,1.5259,idle
2598386,-0.8373,-0.4896,0.2446,-3.8452,-2.1362,1.4038,idle
2598396,-0.8284,-0.4874,0.2415,-2.1362,-4.6387,2.1362,idle
2598406,-0.8328,-0.4901,0.2395,-2.0142,-4.6387,2.1362,idle
2598416,-0.8386,-0.4937,0.2360,-3.2959,-3.0518,1.8311,idle
2598426,-0.8394,-0.4916,0.2393,-5.0659,-0.8545,1.0986,idle
2598436,-0.8334,-0.4851,0.2477,-5.7373,0.3662,0.8545,idle
2598446,-0.8317,-0.4863,0.2416,-2.8076,-3.8452,1.9531,idle
2598456,-0.8356,-0.4888,0.2423,-2.9297,-4.0894,1.9531,idle
2598466,-0.8397,-0.4893,0.2390,-2.8687,-4.1504,1.8921,idle
2598476,-0.8427,-0.4890,0.2380,-3.2349,-3.1738,1.5869,idle
2598486,-0.8424,-0.4897,0.2372,-3.2959,-2.0752,1.2817,idle
2598496,-0.8431,-0.4897,0.2389,-3.7231,-1.2207,1.1597,idle
2598506,-0.8312,-0.4838,0.2468,-3.7842,-0.8545,0.9766,idle
2598516,-0.8324,-0.4877,0.2426,-1.7700,-2.8076,1.4038,idle
2598526,-0.8354,-0.4879,0.2413,-2.0142,-2.3804,1.0376,idle
2598536,-0.8347,-0.4883,0.2399,-2.0752,-2.1362,0.6714,idle
2598546,-0.8374,-0.4904,0.2399,-2.1362,-1.5869,0.4883,idle
2598556,-0.8358,-0.4891,0.2401,-2.3193,-1.8311,0.1831,idle
2598576,-0.8397,-0.4877,0.2429,-1.9531,-1.2207,-0.3662,idle
2598586,-0.8328,-0.4825,0.2377,-1.0986,-1.1597,-0.2441,idle
2598596,-0.8348,-0.4854,0.2380,-0.6714,-1.2817,0.0000,idle
2598606,-0.8325,-0.4875,0.2404,-0.5493,-2.0752,0.0000,idle
2598616,-0.8361,-0.4923,0.2400,-0.7324,-2.4414,-0.4272,idle
2598626,-0.8420,-0.4894,0.2369,-0.6104,-1.8311,-0.6104,idle
2598636,-0.8411,-0.4862,0.2396,-0.6714,-0.7935,-0.6104,idle
2598646,-0.8374,-0.4862,0.2362,-0.7324,-0.3662,-0.6104,idle
2598656,-0.8350,-0.4888,0.2341,-0.6104,-0.5493,-0.4883,idle
2598666,-0.8329,-0.4904,0.2355,-0.4272,-0.7935,-0.3662,idle
2598676,-0.8359,-0.4902,0.2357,-0.7935,-0.3052,-0.6104,idle
2598686,-0.8367,-0.4906,0.2357,-0.5493,-0.3662,-0.7324,idle
2598696,-0.8374,-0.4901,0.2357,-0.1831,-0.3052,-0.7324,idle
2598706,-0.8361,-0.4895,0.2347,0.0610,-0.0610,-0.9155,idle
2598716,-0.8362,-0.4900,0.2347,0.1831,-0.0610,-0.8545,idle
2598726,-0.8356,-0.4901,0.2339,0.3662,-0.1831,-1.0376,idle
2598746,-0.8333,-0.4938,0.2354,0.4272,0.1221,-1.0986,idle
2598756,-0.8346,-0.4928,0.2368,0.4883,0.1831,-1.1597,idle
2598766,-0.8334,-0.4923,0.2366,0.7935,-0.0610,-1.1597,idle
2598776,-0.8356,-0.4922,0.2361,1.0376,0.1221,-1.1597,idle
2598786,-0.8351,-0.4927,0.2360,1.0986,0.0000,-1.2207,idle
2598796,-0.8354,-0.4930,0.2369,1.2817,0.1831,-1.2207,idle
2598806,-0.8348,-0.4924,0.2378,1.2207,0.3052,-1.2207,idle
2598816,-0.8340,-0.4911,0.2375,1.3428,0.4272,-1.2817,idle
2598826,-0.8350,-0.4926,0.2362,1.3428,0.4272,-1.2817,idle
2598836,-0.8365,-0.4926,0.2385,1.3428,0.5493,-1.2817,idle
2598846,-0.8340,-0.4918,0.2378,1.5869,0.6714,-1.2817,idle
2598856,-0.8318,-0.4926,0.2378,1.8311,0.9155,-1.2817,idle
2598866,-0.8320,-0.4945,0.2368,1.8921,0.8545,-1.3428,idle
2598876,-0.8319,-0.4946,0.2362,1.7700,1.0376,-1.2817,idle
2598886,-0.8328,-0.4967,0.2363,1.7090,1.0376,-1.2207,idle
2598896,-0.8320,-0.4963,0.2366,1.5869,0.7935,-1.2207,idle
2598916,-0.8331,-0.4988,0.2356,1.5259,0.5493,-1.2817,idle
2598926,-0.8328,-0.4972,0.2356,1.5259,0.4272,-1.2817,idle
2598936,-0.8326,-0.4958,0.2361,1.4038,0.3052,-1.2817,idle
2598946,-0.8323,-0.4939,0.2373,1.5259,0.0610,-1.2817,idle
2598956,-0.8307,-0.4944,0.2358,1.5869,-0.0610,-1.2817,idle
2598966,-0.8322,-0.4935,0.2375,1.8311,-0.0610,-1.2207,idle
2598976,-0.8331,-0.4943,0.2379,1.8921,0.0610,-1.2817,idle
2598986,-0.8326,-0.4956,0.2345,1.5259,0.3662,-1.2817,idle
2598996,-0.8330,-0.4919,0.2375,1.3428,0.4272,-1.2207,idle
2599006,-0.8322,-0.4911,0.2367,1.4648,0.1831,-1.1597,idle
2599016,-0.8322,-0.4912,0.2360,1.4648,0.2441,-1.0986,idle
2599026,-0.8331,-0.4928,0.2378,1.3428,0.4883,-1.0986,idle
2599036,-0.8315,-0.4915,0.2393,1.2207,0.7324,-1.0376,idle
2599046,-0.8326,-0.4933,0.2371,1.4648,0.3662,-1.0376,idle
2599056,-0.8324,-0.4950,0.2383,1.5869,0.1831,-0.9766,idle
2599066,-0.8317,-0.4946,0.2382,1.5259,0.0000,-1.0376,idle
2599076,-0.8323,-0.4968,0.2390,1.0986,0.3052,-1.0376,idle
2599086,-0.8308,-0.4951,0.2382,0.7324,0.3662,-1.0986,idle
2599096,-0.8326,-0.4954,0.2383,0.5493,0.3052,-1.0376,idle
2599106,-0.8329,-0.4943,0.2396,0.3662,0.1221,-1.0376,idle
2599116,-0.8329,-0.4941,0.2410,0.3052,0.1221,-1.0376,idle
2599126,-0.8345,-0.4949,0.2402,0.2441,0.9155,-1.0986,idle
2599146,-0.8285,-0.4901,0.2428,0.4272,-0.3052,-0.9155,idle
2599156,-0.8275,-0.4906,0.2438,0.6714,-0.4883,-0.7935,idle
2599166,-0.8287,-0.4919,0.2438,0.6104,-0.7935,-0.8545,idle
2599176,-0.8280,-0.4933,0.2427,0.3662,-0.6104,-0.7935,idle
2599186,-0.8295,-0.4946,0.2427,0.0000,-0.6714,-0.8545,idle
2599196,-0.8304,-0.4944,0.2421,-0.1831,-0.7935,-0.7935,idle
2599206,-0.8309,-0.4954,0.2415,-0.2441,-0.7324,-0.6714,idle
2599216,-0.8322,-0.4946,0.2412,-0.3662,-0.6104,-0.6714,idle
2599226,-0.8326,-0.4938,0.2399,-0.6714,-0.7324,-0.6104,idle
2599236,-0.8333,-0.4939,0.2408,-1.0376,-0.7324,-0.5493,idle
2599246,-0.8329,-0.4918,0.2418,-1.1597,-1.0986,-0.3662,idle
2599256,-0.8337,-0.4918,0.2418,-1.2207,-1.4038,-0.3052,idle
2599266,-0.8354,-0.4919,0.2415,-1.2207,-1.4038,-0.1831,idle
2599276,-0.8361,-0.4928,0.2384,-1.2207,-1.3428,-0.2441,idle
2599286,-0.8398,-0.4984,0.2388,-1.4038,-1.2207,-0.1831,idle
2599296,-0.8320,-0.4866,0.2390,-1.6479,-0.7324,0.1221,idle
2599316,-0.8353,-0.4885,0.2393,-0.9766,-1.4038,0.1221,idle
2599326,-0.8356,-0.4867,0.2400,-1.0376,-1.5259,-0.1221,idle
2599336,-0.8376,-0.4873,0.2410,-0.9155,-1.5259,-0.1831,idle
2599346,-0.8373,-0.4855,0.2386,-0.7935,-1.2207,-0.2441,idle
2599356,-0.8367,-0.4857,0.2374,-0.6714,-0.9155,-0.1831,idle
2599366,-0.8373,-0.4868,0.2366,-0.6104,-0.7324,-0.1831,idle
2599376,-0.8370,-0.4878,0.2372,-0.6714,-0.7324,0.0000,idle
2599386,-0.8375,-0.4880,0.2360,-0.6714,-0.8545,-0.1831,idle
2599396,-0.8361,-0.4879,0.2347,-0.6714,-0.5493,-0.3052,idle
2599406,-0.8369,-0.4868,0.2354,-0.5493,-0.4272,-0.3662,idle
2599416,-0.8365,-0.4873,0.2368,-0.4883,-0.2441,-0.2441,idle
2599426,-0.8358,-0.4888,0.2379,-0.3052,-0.0610,-0.3052,idle
2599436,-0.8347,-0.4908,0.2380,-0.1831,-0.1221,-0.4272,idle
2599446,-0.8362,-0.4913,0.2383,-0.1221,-0.1831,-0.3052,idle
2599456,-0.8363,-0.4904,0.2379,-0.1831,-0.1221,-0.2441,idle
2599466,-0.8352,-0.4913,0.2389,-0.3052,-0.3052,-0.2441,idle
2599476,-0.8328,-0.4900,0.2388,-0.2441,-0.4272,-0.4883,idle
2599486,-0.8309,-0.4889,0.2390,-0.1831,-0.3662,-0.5493,idle
2599496,-0.8334,-0.4893,0.2391,-0.0610,-0.4272,-0.5493,idle
2599506,-0.8344,-0.4890,0.2383,0.0610,-0.3662,-0.5493,idle
2599516,-0.8337,-0.4905,0.2369,0.3052,-0.5493,-0.4272,idle
2599526,-0.8340,-0.4929,0.2373,0.1831,-0.6714,-0.4272,idle
2599536,-0.8348,-0.4937,0.2375,0.1831,-0.7324,-0.4883,idle
2599546,-0.8370,-0.4916,0.2372,0.0000,-0.7324,-0.4272,idle
2599556,-0.8373,-0.4910,0.2357,-0.1831,-0.4883,-0.4883,idle
2599566,-0.8363,-0.4893,0.2363,-0.4272,-0.3052,-0.5493,idle
2599576,-0.8369,-0.4886,0.2367,-0.3662,-0.1221,-0.4883,idle
2599586,-0.8380,-0.4888,0.2372,-0.1831,-0.2441,-0.5493,idle
2599596,-0.8357,-0.4897,0.2378,-0.1831,-0.1221,-0.5493,idle
2599606,-0.8351,-0.4890,0.2388,0.1221,0.1221,-0.3662,idle
2599616,-0.8339,-0.4900,0.2385,0.0610,0.3052,-0.3052,idle
2599626,-0.8328,-0.4907,0.2391,0.0000,0.1831,-0.3662,idle
2599636,-0.8334,-0.4916,0.2380,-0.0610,0.3662,-0.3662,idle
2599646,-0.8353,-0.4929,0.2363,-0.1221,0.0610,-0.4272,idle
2599656,-0.8369,-0.4926,0.2358,-0.1221,-0.0610,-0.3662,idle
2599666,-0.8361,-0.4929,0.2349,0.0000,-0.2441,-0.3662,idle
2599676,-0.8357,-0.4921,0.2346,0.0000,-0.1831,-0.3662,idle
2599686,-0.8354,-0.4902,0.2352,0.0610,-0.1221,-0.3662,idle
2599696,-0.8348,-0.4911,0.2354,-0.1831,-0.1221,-0.5493,idle
2599716,-0.8357,-0.4901,0.2349,-0.1831,-0.0610,-0.5493,idle
2599726,-0.8361,-0.4900,0.2346,-0.2441,-0.2441,-0.5493,idle
2599736,-0.8383,-0.4905,0.2351,-0.1831,-0.1831,-0.5493,idle
2599746,-0.8363,-0.4891,0.2347,-0.2441,-0.3052,-0.4883,idle
2599756,-0.8359,-0.4897,0.2354,0.1221,-0.2441,-0.5493,idle
2599766,-0.8351,-0.4894,0.2352,0.3052,0.0610,-0.6104,idle
2599776,-0.8356,-0.4899,0.2366,0.4272,0.1221,-0.6714,idle
2599786,-0.8362,-0.4915,0.2360,0.4272,-0.1221,-0.7935,idle
2599796,-0.8345,-0.4919,0.2356,0.3662,0.0000,-0.7935,idle
2599806,-0.8350,-0.4924,0.2361,0.4272,0.0610,-0.7935,idle
2599816,-0.8357,-0.4913,0.2365,0.6104,-0.0610,-0.7935,idle
2599826,-0.8346,-0.4922,0.2363,0.7324,-0.0610,-0.7935,idle
2599836,-0.8342,-0.4934,0.2357,0.6714,-0.1221,-0.7935,idle
2599846,-0.8341,-0.4928,0.2347,0.4272,-0.1221,-0.9766,idle
2599856,-0.8346,-0.4926,0.2347,0.4272,0.1221,-0.8545,idle
2599866,-0.8353,-0.4917,0.2356,0.4883,15.5640,-0.8545,idle
2599886,-0.8325,-0.4916,0.2371,0.8545,0.0000,-0.8545,idle
2599896,-0.8326,-0.4912,0.2371,0.9766,0.0000,-0.6714,idle
2599906,-0.8329,-0.4922,0.2377,0.7935,0.1221,-0.6714,idle
2599916,-0.8320,-0.4934,0.2385,0.7935,0.2441,-0.6714,idle
2599926,-0.8333,-0.4938,0.2367,0.5493,0.3052,-0.6104,idle
2599936,-0.8328,-0.4932,0.2360,0.5493,0.1831,-0.6714,idle
2599946,-0.8335,-0.4933,0.2368,0.3662,0.0610,-0.7324,idle
2599956,-0.8325,-0.4927,0.2386,0.4272,0.1221,-0.6714,idle
2599966,-0.8337,-0.4917,0.2373,0.4272,-0.0610,-0.5493,idle
2599976,-0.8330,-0.4933,0.2377,0.6104,0.0000,-0.5493,idle
2599986,-0.8335,-0.4938,0.2368,0.6104,-0.4883,-0.5493,idle
2599996,-0.8348,-0.4940,0.2357,0.5493,-0.3052,-0.4883,idle
2600006,-0.8335,-0.4949,0.2356,0.5493,-0.2441,-0.3662,idle
2600016,-0.8335,-0.4958,0.2374,0.6714,-0.2441,-0.5493,idle
2600026,-0.8320,-0.4928,0.2382,0.6104,-0.3662,-0.5493,idle
2600036,-0.8323,-0.4911,0.2380,0.7324,-0.3662,-0.6714,idle
2600046,-0.8323,-0.4897,0.2385,0.5493,-0.3052,-0.7324,idle
2600056,-0.8323,-0.4906,0.2399,0.7324,-0.2441,-0.7324,idle
2600066,-0.8323,-0.4912,0.2400,0.7935,-0.3052,-0.7935,idle
2600076,-0.8328,-0.4916,0.2395,0.7935,-0.4272,-0.7324,idle
2600086,-0.8337,-0.4930,0.2385,0.9155,-0.4883,-0.8545,idle
2600096,-0.8320,-0.4935,0.2375,0.7935,-0.1221,-0.7935,idle
2600116,-0.8340,-0.4935,0.2384,0.5493,-0.1221,-0.6714,idle
2600126,-0.8335,-0.4944,0.2389,0.5493,-0.1831,-0.7324,idle
2600136,-0.8336,-0.4938,0.2377,0.4883,-0.1831,-0.6104,idle
2600146,-0.8342,-0.4917,0.2368,0.3662,-0.3662,-0.7935,idle
2600156,-0.8340,-0.4908,0.2388,0.0610,-0.3052,-0.6714,idle
2600166,-0.8336,-0.4911,0.2402,0.1831,-0.1831,-0.7324,idle
2600176,-0.8337,-0.4919,0.2408,0.4272,-0.0610,-0.5493,idle
2600186,-0.8340,-0.4919,0.2401,0.5493,-0.2441,-0.5493,idle
2600196,-0.8328,-0.4919,0.2388,0.4272,-0.3052,-0.5493,idle
2600206,-0.8341,-0.4935,0.2379,0.1831,-0.3052,-0.5493,idle
2600216,-0.8331,-0.4938,0.2393,0.0000,-0.1831,-0.5493,idle
2600226,-0.8333,-0.4922,0.2383,-0.1221,-0.1221,-0.5493,idle
2600236,-0.8337,-0.4939,0.2385,-0.3052,-0.0610,-0.4883,idle
2600246,-0.8330,-0.4927,0.2380,-0.4883,-0.0610,-0.7935,idle
2600256,-0.8324,-0.4935,0.2380,-0.3052,0.0000,-0.6104,idle
2600266,-0.8329,-0.4934,0.2380,-0.1831,-0.1221,-0.6714,idle
2600286,-0.8346,-0.4918,0.2384,-0.1831,-0.3052,-0.6104,idle
2600296,-0.8341,-0.4910,0.2380,-0.1831,-0.2441,-0.6714,idle
2600306,-0.8337,-0.4902,0.2371,-0.1831,-0.0610,-0.7324,idle
2600316,-0.8341,-0.4896,0.2377,-0.1831,0.0000,-0.7324,idle
2600326,-0.8339,-0.4901,0.2379,0.0610,-0.2441,-0.7935,idle
2600336,-0.8345,-0.4888,0.2362,0.0610,-0.2441,-0.7935,idle
2600346,-0.8364,-0.4891,0.2363,0.0610,-0.1221,-0.7324,idle
2600356,-0.8365,-0.4893,0.2361,0.0610,0.0610,-0.6714,idle
2600366,-0.8340,-0.4899,0.2357,0.1221,0.0610,-0.7324,idle
2600376,-0.8353,-0.4896,0.2362,0.1221,0.1221,-0.8545,idle
2600386,-0.8345,-0.4900,0.2371,0.0000,0.1221,-0.8545,idle
2600396,-0.8351,-0.4900,0.2380,-0.0610,0.0610,-0.9155,idle
2600406,-0.8353,-0.4902,0.2378,0.0610,0.3052,-0.7324,idle
2600416,-0.8341,-0.4911,0.2380,0.0000,0.2441,-0.7935,idle
2600426,-0.8347,-0.4897,0.2383,-0.1221,0.2441,-0.7935,idle
2600436,-0.8357,-0.4897,0.2388,-0.1831,0.4272,-0.9155,idle
2600456,-0.8342,-0.4897,0.2390,-0.1221,0.4883,-0.8545,idle
2600466,-0.8352,-0.4890,0.2386,-0.1831,0.3662,-0.7324,idle
2600476,-0.8362,-0.4897,0.2375,-0.1831,0.4883,-0.7324,idle
2600486,-0.8358,-0.4893,0.2382,-0.1831,0.1831,-0.8545,idle
2600496,-0.8352,-0.4877,0.2367,-0.2441,0.3052,-0.8545,idle
2600506,-0.8344,-0.4890,0.2384,0.0000,0.1831,-0.8545,idle
2600516,-0.8354,-0.4894,0.2394,0.1831,0.1831,-0.8545,idle
2600526,-0.8354,-0.4900,0.2380,0.0000,0.3052,-0.8545,idle
2600536,-0.8351,-0.4910,0.2386,0.0000,0.4272,-0.7324,idle
2600546,-0.8357,-0.4912,0.2366,-0.0610,0.3662,-0.9155,idle
2600556,-0.8356,-0.4916,0.2371,-0.0610,0.3662,-0.9155,idle
2600566,-0.8350,-0.4905,0.2389,-0.2441,0.3662,-0.9155,idle
2600576,-0.8342,-0.4896,0.2405,-0.3052,0.4883,-1.0376,idle
2600586,-0.8336,-0.4886,0.2401,-0.0610,0.4883,-0.9766,idle
2600596,-0.8324,-0.4888,0.2410,-0.3052,0.3662,-0.9155,idle
2600606,-0.8331,-0.4895,0.2402,-0.0610,0.3662,-0.9155,idle
2600616,-0.8336,-0.4894,0.2391,0.1831,0.0610,-0.9766,idle
2600626,-0.8347,-0.4889,0.2395,0.1831,0.0000,-0.9766,idle
2600636,-0.8372,-0.4901,0.2382,0.3052,0.0610,-0.9766,idle
2600646,-0.8357,-0.4889,0.2390,0.2441,0.1221,-0.9766,idle
2600656,-0.8365,-0.4874,0.2393,0.4883,0.2441,-0.8545,idle
2600666,-0.8353,-0.4890,0.2397,0.4883,0.4272,-0.8545,idle
2600686,-0.8339,-0.4907,0.2402,0.8545,0.5493,-0.8545,idle
2600696,-0.8318,-0.4912,0.2406,0.7935,0.4883,-0.9155,idle
2600706,-0.8330,-0.4919,0.2407,0.5493,0.2441,-0.9766,idle
2600716,-0.8325,-0.4927,0.2416,0.5493,0.3052,-1.0376,idle
2600726,-0.8318,-0.4934,0.2413,0.5493,0.2441,-0.9766,idle
2600736,-0.8326,-0.4932,0.2407,0.3662,0.1221,-0.9766,idle
2600746,-0.8326,-0.4929,0.2405,0.2441,-0.1221,-0.8545,idle
2600756,-0.8326,-0.4932,0.2405,0.2441,-0.1221,-0.8545,idle
2600766,-0.8328,-0.4917,0.2410,0.2441,-0.3052,-0.8545,idle
2600776,-0.8328,-0.4896,0.2407,0.1831,-0.3052,-0.7935,idle
2600786,-0.8315,-0.4894,0.2399,0.1221,-0.6104,-0.7935,idle
2600796,-0.8325,-0.4900,0.2399,0.3052,-0.5493,-0.7324,idle
2600806,-0.8329,-0.4897,0.2391,0.1831,-0.6104,-0.6714,idle
2600816,-0.8330,-0.4893,0.2400,0.1831,-0.4883,-0.5493,idle
2600826,-0.8337,-0.4897,0.2406,0.2441,-0.3662,-0.5493,idle
2600836,-0.8350,-0.4897,0.2399,0.0610,-0.4272,-0.4883,idle
2600856,-0.8342,-0.4894,0.2407,-0.1221,-0.1221,-0.3662,idle
2600866,-0.8341,-0.4897,0.2408,0.0000,-0.3052,-0.4272,idle
2600876,-0.8336,-0.4890,0.2407,-0.0610,-0.1831,-0.4272,idle
2600886,-0.8348,-0.4886,0.2406,-0.1831,-0.4272,-0.4272,idle
2600896,-0.8342,-0.4872,0.2396,0.0610,-0.4883,-0.4883,idle
2600906,-0.8361,-0.4869,0.2389,0.0610,-0.3662,-0.3662,idle
2600916,-0.8365,-0.4885,0.2385,0.0610,-0.4883,-0.4272,idle
2600926,-0.8373,-0.4877,0.2373,0.0610,-0.5493,-0.4883,idle
2600936,-0.8372,-0.4883,0.2371,0.0000,-0.4272,-0.4883,idle
2600946,-0.8363,-0.4873,0.2360,0.0610,-0.4272,-0.5493,idle
2600956,-0.8375,-0.4872,0.2371,0.1221,-0.6104,-0.6104,idle
2600966,-0.8361,-0.4875,0.2363,0.2441,-0.5493,-0.6714,idle
2600976,-0.8363,-0.4862,0.2368,0.3052,-0.6104,-0.7324,idle
2600986,-0.8373,-0.4862,0.2366,0.3052,-0.4272,-0.6714,idle
2600996,-0.8357,-0.4872,0.2366,0.4272,-0.4272,-0.7935,idle
2601006,-0.8379,-0.4872,0.2371,0.4883,-0.4272,-0.7935,idle
2601026,-0.8387,-0.4871,0.2369,0.6714,-0.3662,-0.7324,idle
2601036,-0.8374,-0.4861,0.2379,0.5493,-0.3662,-0.6714,idle
2601046,-0.8359,-0.4861,0.2375,0.4272,-0.5493,-0.7324,idle
2601056,-0.8346,-0.4879,0.2386,0.6714,-0.3052,-0.7324,idle
2601066,-0.8345,-0.4875,0.2393,1.0986,-0.3052,-0.8545,idle
2601076,-0.8354,-0.4900,0.2383,1.0986,-0.3662,-0.7935,idle
2601086,-0.8369,-0.4915,0.2382,1.0376,-0.4272,-0.7324,idle
2601096,-0.8363,-0.4912,0.2377,0.8545,-0.5493,-0.7935,idle
2601106,-0.8378,-0.4906,0.2362,0.7324,-0.6104,-0.8545,idle
2601116,-0.8365,-0.4924,0.2362,0.5493,-0.5493,-0.8545,idle
2601126,-0.8358,-0.4912,0.2372,0.1831,-0.7324,-0.8545,idle
2601136,-0.8354,-0.4886,0.2396,0.1831,-0.6714,-0.8545,idle
2601146,-0.8348,-0.4863,0.2382,0.1831,-0.4883,-0.8545,idle
2601156,-0.8351,-0.4869,0.2384,0.2441,-0.5493,-0.8545,idle
2601166,-0.8342,-0.4883,0.2389,0.4883,-0.6104,-0.7935,idle
2601176,-0.8359,-0.4873,0.2379,0.4272,-0.3052,-0.7324,idle
2601186,-0.8386,-0.4899,0.2379,0.3052,-0.2441,-0.6714,idle
2601196,-0.8378,-0.4894,0.2383,0.1831,-0.1831,-0.6714,idle
2601206,-0.8369,-0.4896,0.2386,0.1221,-0.0610,-0.6714,idle
2601216,-0.8364,-0.4904,0.2382,-0.1831,0.0610,-0.6104,idle
2601226,-0.8363,-0.4902,0.2377,-0.0610,-0.1221,-0.6714,idle
2601236,-0.8356,-0.4905,0.2382,15.5640,-0.1831,-0.6104,idle
2601256,-0.8345,-0.4894,0.2388,0.0610,0.0000,-0.8545,idle
2601266,-0.8342,-0.4899,0.2389,0.1221,0.0610,-0.7935,idle
2601276,-0.8335,-0.4908,0.2380,0.1221,0.0610,-0.7935,idle
2601286,-0.8352,-0.4897,0.2385,0.0610,-0.1831,-0.7935,idle
2601296,-0.8352,-0.4906,0.2374,0.1831,-0.1221,-0.7935,idle
2601306,-0.8354,-0.4901,0.2377,0.1831,-0.1831,-0.7324,idle
2601316,-0.8357,-0.4891,0.2372,0.0610,-0.2441,-0.7324,idle
2601326,-0.8356,-0.4889,0.2384,0.0000,-0.3662,-0.6714,idle
2601336,-0.8352,-0.4889,0.2384,0.1831,-0.3052,-0.6104,idle
2601346,-0.8337,-0.4885,0.2386,0.0000,-0.3662,-0.7935,idle
2601356,-0.8352,-0.4888,0.2377,0.1831,-0.3052,-0.7935,idle
2601366,-0.8350,-0.4895,0.2379,0.3052,-0.4272,-0.7935,idle
2601376,-0.8348,-0.4906,0.2380,0.3052,-0.5493,-0.5493,idle
2601386,-0.8357,-0.4904,0.2378,0.3662,-0.4272,-0.5493,idle
2601396,-0.8341,-0.4901,0.2374,0.0610,-0.3662,-0.7324,idle
2601406,-0.8348,-0.4907,0.2375,0.1831,-0.3662,-0.6714,idle
2601426,-0.8351,-0.4897,0.2377,0.0000,-0.2441,-0.7324,idle
2601436,-0.8345,-0.4905,0.2371,0.1831,-0.2441,-0.7324,idle
2601446,-0.8350,-0.4902,0.2379,0.1221,-0.6104,-0.6714,idle
2601456,-0.8352,-0.4897,0.2383,0.0610,-0.3662,-0.6714,idle
2601466,-0.8342,-0.4904,0.2374,0.3052,-0.4883,-0.5493,idle
2601476,-0.8344,-0.4896,0.2385,0.2441,-0.5493,-0.4272,idle
2601486,-0.8354,-0.4910,0.2385,0.1221,-0.5493,-0.4272,idle
2601496,-0.8337,-0.4908,0.2377,0.0000,-0.6104,-0.6714,idle
2601506,-0.8342,-0.4893,0.2383,0.1221,-0.4883,-0.6714,idle
2601516,-0.8350,-0.4902,0.2389,0.0610,-0.4272,-0.4883,idle
2601526,-0.8342,-0.4905,0.2377,-0.0610,-0.6104,-0.5493,idle
2601536,-0.8362,-0.4900,0.2367,0.0000,-0.6714,-0.6104,idle
2601546,-0.8357,-0.4896,0.2368,-0.0610,-0.9155,-0.6104,idle
2601556,-0.8367,-0.4886,0.2368,-0.1221,-0.5493,-0.4883,idle
2601566,-0.8367,-0.4878,0.2361,-0.2441,-0.4883,-0.3662,idle
2601576,-0.8372,-0.4875,0.2363,-0.2441,-0.3662,-0.6104,idle
2601596,-0.8357,-0.4872,0.2384,0.1831,-0.4883,-0.6104,idle
2601606,-0.8362,-0.4882,0.2371,0.1221,-0.6104,-0.4883,idle
2601616,-0.8359,-0.4891,0.2365,0.3052,-0.5493,-0.3662,idle
2601626,-0.8363,-0.4904,0.2365,0.2441,-0.5493,-0.3052,idle
2601636,-0.8369,-0.4907,0.2357,0.2441,-0.4272,-0.4883,idle
2601646,-0.8365,-0.4889,0.2335,0.1831,-0.4883,-0.5493,idle
2601656,-0.8389,-0.4905,0.2330,0.2441,-0.3052,-0.5493,idle
2601666,-0.8378,-0.4890,0.2349,0.1221,0.0000,-0.5493,idle
2601676,-0.8358,-0.4889,0.2356,0.3662,-0.3052,-0.6714,idle
2601686,-0.8367,-0.4879,0.2365,0.1831,-0.1831,-0.7935,idle
2601696,-0.8368,-0.4873,0.2360,0.0610,-0.3052,-0.7324,idle
2601706,-0.8367,-0.4874,0.2361,0.0610,-0.1831,-0.6714,idle
2601716,-0.8363,-0.4868,0.2363,0.2441,-0.3052,-0.6104,idle
2601726,-0.8376,-0.4863,0.2356,0.4272,-0.1831,-0.7935,idle
2601736,-0.8372,-0.4863,0.2356,0.3052,0.0000,-0.7324,idle
2601746,-0.8362,-0.4862,0.2362,0.3052,0.0000,-0.6714,idle
2601756,-0.8383,-0.4880,0.2358,0.4272,0.3662,-0.6714,idle
2601766,-0.8391,-0.4889,0.2358,0.4272,0.5493,-0.6104,idle
2601776,-0.8391,-0.4890,0.2349,0.3662,0.3662,-0.6104,idle
2601786,-0.8378,-0.4891,0.2347,0.4272,0.3052,-0.6104,idle
2601796,-0.8372,-0.4894,0.2354,0.3052,0.3052,-0.6104,idle
2601806,-0.8379,-0.4897,0.2357,0.3052,0.2441,-0.4883,idle
2601826,-0.8357,-0.4889,0.2351,0.3052,0.2441,-0.6714,idle
2601836,-0.8367,-0.4891,0.2360,0.0610,0.2441,-0.5493,idle
2601846,-0.8357,-0.4894,0.2360,0.0000,0.2441,-0.4272,idle
2601856,-0.8365,-0.4885,0.2368,0.0610,0.5493,-0.3052,idle
2601866,-0.8365,-0.4885,0.2375,0.1221,0.5493,-0.4883,idle
2601876,-0.8353,-0.4885,0.2382,0.2441,0.6104,-0.4272,idle
2601886,-0.8346,-0.4879,0.2378,0.1831,0.6714,-0.4883,idle
2601896,-0.8347,-0.4890,0.2388,0.1831,0.3052,-0.6104,idle
2601906,-0.8348,-0.4890,0.2386,0.1831,0.2441,-0.4883,idle
2601916,-0.8333,-0.4895,0.2384,0.3052,0.1831,-0.3662,idle
2601926,-0.8346,-0.4902,0.2369,0.1221,0.1221,-0.4883,idle
2601936,-0.8346,-0.4911,0.2383,0.0000,0.0610,-0.4272,idle
2601946,-0.8346,-0.4912,0.2371,0.1221,0.0000,-0.4272,idle
2601956,-0.8356,-0.4915,0.2371,0.1831,-0.0610,-0.4272,idle
2601966,-0.8356,-0.4910,0.2384,0.0000,-0.0610,-0.5493,idle
2601976,-0.8347,-0.4905,0.2384,0.0000,-0.1221,-0.4272,idle
2601996,-0.8329,-0.4900,0.2382,0.1221,-0.3662,-0.4272,idle
2602006,-0.8337,-0.4895,0.2382,0.1221,-0.3662,-0.2441,idle
2602016,-0.8337,-0.4888,0.2373,0.3052,-0.3662,-0.2441,idle
2602026,-0.8333,-0.4890,0.2389,0.3052,-0.3662,-0.1221,idle
2602036,-0.8329,-0.4894,0.2386,0.7935,-0.6104,-0.0610,idle
2602046,-0.8337,-0.4906,0.2385,0.5493,-0.3662,-0.1221,idle
2602056,-0.8337,-0.4913,0.2393,0.3662,-0.3052,-0.1221,idle
2602066,-0.8351,-0.4917,0.2389,0.1831,-0.3052,-0.1221,idle
2602076,-0.8346,-0.4915,0.2394,0.0610,-0.2441,-0.3052,idle
2602086,-0.8353,-0.4915,0.2388,0.0000,-0.3052,-0.2441,idle
2602096,-0.8354,-0.4933,0.2380,-0.0610,-0.4272,-0.1831,idle
2602106,-0.8365,-0.4910,0.2383,-0.2441,-0.4883,-0.3052,idle
2602116,-0.8361,-0.4889,0.2388,-0.4883,-0.3662,-0.1831,idle
2602126,-0.8345,-0.4873,0.2382,-0.5493,-0.4272,-0.3052,idle
2602136,-0.8330,-0.4873,0.2385,-0.4272,-0.5493,-0.3052,idle
2602146,-0.8334,-0.4883,0.2384,-0.1221,-0.3662,-0.1831,idle
2602166,-0.8346,-0.4913,0.2389,0.0610,-0.2441,-0.1831,idle
2602176,-0.8357,-0.4923,0.2383,0.0000,-0.1831,-0.3052,idle
2602186,-0.8365,-0.4924,0.2384,0.0000,-0.1831,-0.3052,idle
2602196,-0.8354,-0.4913,0.2379,0.0000,-0.0610,-0.3052,idle
2602206,-0.8354,-0.4905,0.2396,0.0000,-0.3052,-0.6104,idle
2602216,-0.8344,-0.4889,0.2399,-0.1831,-0.3662,-0.7935,idle
2602226,-0.8337,-0.4883,0.2390,-0.2441,-0.3052,-0.6714,idle
2602236,-0.8344,-0.4894,0.2391,-0.2441,-0.3662,-0.7935,idle
2602246,-0.8333,-0.4889,0.2384,-0.0610,-0.3052,-0.9155,idle
2602256,-0.8339,-0.4904,0.2380,-0.0610,-0.2441,-0.9155,idle
2602266,-0.8351,-0.4897,0.2374,0.0000,-0.3052,-0.7324,idle
2602276,-0.8357,-0.4895,0.2378,0.2441,-0.0610,-0.7935,idle
2602286,-0.8350,-0.4905,0.2367,0.4272,0.0610,-0.7324,idle
2602296,-0.8334,-0.4910,0.2375,0.4272,0.0000,-0.7324,idle
2602306,-0.8348,-0.4922,0.2380,0.4272,0.1221,-0.7324,idle
2602316,-0.8346,-0.4919,0.2383,0.4883,0.1831,-0.8545,idle
2602326,-0.8354,-0.4918,0.2375,0.2441,0.0610,-0.9155,idle
2602336,-0.8354,-0.4923,0.2388,0.1831,0.0610,-0.8545,idle
2602346,-0.8331,-0.4912,0.2397,0.2441,0.0000,-0.9155,idle
2602356,-0.8329,-0.4917,0.2407,0.2441,0.0610,-0.9155,idle
2602366,-0.8323,-0.4917,0.2394,0.3052,0.1221,-0.8545,idle
2602376,-0.8324,-0.4918,0.2399,0.4272,0.0610,-0.7935,idle
2602396,-0.8325,-0.4929,0.2389,0.3052,-0.1831,-0.5493,idle
2602406,-0.8335,-0.4922,0.2395,0.3662,-0.0610,-0.5493,idle
2602416,-0.8335,-0.4924,0.2385,0.3662,0.1221,-0.5493,idle
2602426,-0.8331,-0.4917,0.2373,0.3052,0.0000,-0.7324,idle
2602436,-0.8328,-0.4929,0.2384,0.2441,-0.1221,-0.7324,idle
2602446,-0.8331,-0.4921,0.2365,0.1221,-0.1221,-0.6714,idle
2602456,-0.8346,-0.4929,0.2367,0.1221,0.0610,-0.7935,idle
2602466,-0.8352,-0.4912,0.2363,0.0610,0.1831,-0.6714,idle
2602476,-0.8348,-0.4911,0.2367,0.0000,0.1221,-0.6714,idle
2602486,-0.8342,-0.4918,0.2377,-0.0610,0.1221,-0.6104,idle
2602496,-0.8368,-0.4913,0.2375,0.2441,-0.0610,-0.5493,idle
2602506,-0.8351,-0.4910,0.2379,0.3052,-0.0610,-0.3662,idle
2602516,-0.8345,-0.4908,0.2363,0.3662,0.0000,-0.3662,idle
2602526,-0.8344,-0.4910,0.2371,0.3052,0.0000,-0.4272,idle
2602536,-0.8352,-0.4904,0.2365,0.3052,-0.1831,-0.5493,idle
2602546,-0.8352,-0.4912,0.2377,0.3052,-0.3052,-0.6714,idle
2602566,-0.8359,-0.4901,0.2365,0.4272,-0.0610,-0.4883,idle
2602576,-0.8354,-0.4906,0.2367,0.3662,-0.0610,-0.5493,idle
2602586,-0.8361,-0.4899,0.2367,0.3662,-0.1221,-0.4883,idle
2602596,-0.8345,-0.4902,0.2372,0.4883,-0.0610,-0.7324,idle
2602606,-0.8336,-0.4905,0.2360,0.3662,0.1221,-0.6714,idle
2602616,-0.8352,-0.4897,0.2366,0.4272,0.0000,-0.7324,idle
2602626,-0.8348,-0.4896,0.2365,0.4883,-0.0610,-0.6714,idle
2602636,-0.8350,-0.4905,0.2366,0.4883,0.0000,-0.6714,idle
2602646,-0.8325,-0.4900,0.2363,0.6104,0.0610,-0.7324,idle
2602656,-0.8357,-0.4919,0.2356,0.4883,0.0610,-0.8545,idle
2602666,-0.8365,-0.4912,0.2351,0.6104,0.0000,-0.7935,idle
2602676,-0.8359,-0.4913,0.2357,0.7324,-0.0610,-0.8545,idle
2602686,-0.8354,-0.4901,0.2362,0.6714,-0.0610,-0.6714,idle
2602696,-0.8336,-0.4907,0.2369,0.6104,0.0000,-0.7324,idle
2602706,-0.8337,-0.4904,0.2369,0.7935,-0.0610,-0.6714,idle
2602716,-0.8336,-0.4919,0.2382,0.7935,0.0610,-0.6104,idle
2602726,-0.8342,-0.4915,0.2356,0.7935,0.0610,-0.5493,idle
2602736,-0.8353,-0.4928,0.2354,0.7324,-0.1221,-0.6714,idle
2602746,-0.8326,-0.4933,0.2356,0.6714,-0.1221,-0.6104,idle
2602756,-0.8329,-0.4922,0.2356,0.6104,-0.1831,-0.7324,idle
2602766,-0.8342,-0.4917,0.2361,0.6714,-0.0610,-0.8545,idle
2602776,-0.8340,-0.4917,0.2386,0.4272,-0.0610,-0.7324,idle
2602786,-0.8333,-0.4907,0.2367,0.7324,0.1221,-0.7935,idle
2602796,-0.8325,-0.4913,0.2378,0.6714,0.0610,-0.9155,idle
2602806,-0.8336,-0.4921,0.2379,0.8545,-0.0610,-0.7935,idle
2602816,-0.8345,-0.4924,0.2369,0.8545,-0.1221,-0.7324,idle
2602826,-0.8340,-0.4926,0.2361,0.7935,-0.1831,-0.6714,idle
2602836,-0.8334,-0.4923,0.2368,0.6104,0.0000,-0.7324,idle
2602846,-0.8348,-0.4922,0.2360,0.6104,-0.2441,-0.7324,idle
2602856,-0.8341,-0.4928,0.2367,0.4883,-0.3052,-0.6714,idle
2602866,-0.8345,-0.4917,0.2356,0.4272,-0.1831,-0.5493,idle
2602876,-0.8347,-0.4919,0.2360,0.4272,-0.1831,-0.6104,idle
2602886,-0.8344,-0.4916,0.2357,0.4883,-0.0610,-0.6104,idle
2602896,-0.8341,-0.4905,0.2366,0.3662,-0.2441,-0.4883,idle
2602906,-0.8335,-0.4916,0.2366,0.4883,-0.1221,-0.4883,idle
2602916,-0.8337,-0.4922,0.2384,0.4883,-0.1831,-0.4272,idle
2602926,-0.8335,-0.4921,0.2379,0.3052,-0.1221,-0.4272,idle
2602936,-0.8339,-0.4924,0.2374,0.3662,-0.1221,-0.3662,idle
2602946,-0.8353,-0.4935,0.2375,0.3052,-0.2441,-0.4883,idle
2602966,-0.8341,-0.4921,0.2363,0.3052,-0.0610,-0.4272,idle
2602976,-0.8339,-0.4919,0.2361,0.1831,0.0000,-0.5493,idle
2602986,-0.8352,-0.4917,0.2368,0.3662,-0.1221,-0.5493,idle
2602996,-0.8346,-0.4923,0.2374,0.4272,0.0610,-0.4272,idle
2603006,-0.8348,-0.4921,0.2360,0.1831,-0.1831,-0.5493,idle
2603016,-0.8350,-0.4927,0.2369,0.3662,-0.3052,-0.4883,idle
2603026,-0.8341,-0.4915,0.2367,0.2441,-0.1831,-0.5493,idle
2603036,-0.8350,-0.4923,0.2372,0.2441,-0.2441,-0.6714,idle
2603046,-0.8335,-0.4911,0.2362,0.3662,-0.1831,-0.6104,idle
2603056,-0.8344,-0.4916,0.2363,0.3662,-0.1831,-0.6104,idle
2603066,-0.8348,-0.4908,0.2357,0.2441,0.1221,-0.5493,idle
2603076,-0.8351,-0.4901,0.2365,0.4272,0.0610,-0.6104,idle
2603086,-0.8351,-0.4901,0.2357,0.4272,0.0000,-0.5493,idle
2603096,-0.8330,-0.4906,0.2367,0.3052,-0.0610,-0.5493,idle
2603106,-0.8353,-0.4908,0.2365,0.2441,-0.1221,-0.5493,idle
2603116,-0.8354,-0.4923,0.2349,0.1831,0.0610,-0.4272,idle
2603136,-0.8345,-0.4921,0.2358,0.2441,0.2441,-0.4883,idle
2603146,-0.8323,-0.4923,0.2351,0.2441,0.1831,-0.6104,idle
2603156,-0.8333,-0.4916,0.2382,0.2441,-0.0610,-0.5493,idle
2603166,-0.8329,-0.4926,0.2368,0.3052,0.0610,-0.5493,idle
2603176,-0.8333,-0.4915,0.2377,0.3662,0.0610,-0.5493,idle
2603186,-0.8329,-0.4912,0.2384,0.3052,0.0610,-0.6714,idle
2603196,-0.8320,-0.4918,0.2377,0.1831,0.0000,-0.6714,idle
2603206,-0.8330,-0.4919,0.2385,0.3052,-0.0610,-0.6104,idle
2603216,-0.8334,-0.4919,0.2378,0.2441,-0.0610,-0.6104,idle
2603226,-0.8339,-0.4917,0.2363,0.3052,0.0610,-0.6104,idle
2603236,-0.8357,-0.4915,0.2365,0.1831,0.0000,-0.7935,idle
2603246,-0.8346,-0.4905,0.2365,0.3662,-0.0610,-0.7324,idle
2603256,-0.8334,-0.4923,0.2378,0.4272,0.0000,-0.6714,idle
2603266,-0.8335,-0.4928,0.2374,0.5493,-0.1221,-0.7935,idle
2603276,-0.8340,-0.4938,0.2389,0.4883,0.0610,-0.6714,idle
2603286,-0.8333,-0.4939,0.2379,0.3662,0.0610,-0.6104,idle
2603296,-0.8342,-0.4941,0.2371,0.2441,-0.1831,-0.7935,idle
2603306,-0.8333,-0.4941,0.2357,0.1831,-0.1221,-0.7324,idle
2603316,-0.8331,-0.4930,0.2367,0.1221,-0.0610,-0.6714,idle
2603326,-0.8340,-0.4932,0.2371,0.1221,-0.2441,-0.7935,idle
2603336,-0.8325,-0.4912,0.2383,0.1831,0.0000,-0.6714,idle
2603346,-0.8328,-0.4917,0.2379,0.1831,0.0000,-0.6104,idle
2603366,-0.8326,-0.4929,0.2386,0.3662,0.0610,-0.6104,idle
2603376,-0.8333,-0.4932,0.2375,0.3052,-0.0610,-0.4272,idle
2603386,-0.8341,-0.4921,0.2367,0.3052,-0.2441,-0.5493,idle
2603396,-0.8364,-0.4934,0.2369,0.2441,-0.0610,-0.5493,idle
2603406,-0.8337,-0.4924,0.2378,0.1831,0.1221,-0.4883,idle
2603416,-0.8344,-0.4912,0.2385,0.3662,0.1221,-0.5493,idle
2603426,-0.8336,-0.4913,0.2384,0.1221,0.1831,-0.4272,idle
2603436,-0.8342,-0.4924,0.2375,0.4272,0.1221,-0.4272,idle
2603446,-0.8353,-0.4943,0.2388,0.4272,0.0000,-0.4883,idle
2603456,-0.8331,-0.4932,0.2388,0.4272,0.0000,-0.4272,idle
2603466,-0.8328,-0.4946,0.2394,0.5493,-0.1221,-0.4883,idle
2603476,-0.8323,-0.4951,0.2393,0.6104,-0.2441,-0.3662,idle
2603486,-0.8326,-0.4943,0.2371,0.6104,-0.0610,-0.4883,idle
2603496,-0.8329,-0.4948,0.2375,0.1221,-0.1831,-0.4272,idle
2603506,-0.8320,-0.4945,0.2366,0.0610,-0.3662,-0.4883,idle
2603516,-0.8313,-0.4943,0.2400,0.0610,-0.3662,-0.3662,idle
2603536,-0.8322,-0.4929,0.2378,0.0000,-0.0610,-0.3052,idle
2603546,-0.8308,-0.4932,0.2389,0.0610,-0.3052,-0.3662,idle
2603556,-0.8331,-0.4929,0.2389,-0.0610,-0.4272,-0.6714,idle
2603566,-0.8331,-0.4932,0.2373,0.0610,-0.2441,-0.5493,idle
2603576,-0.8342,-0.4927,0.2363,-0.1221,-0.2441,-0.4272,idle
2603586,-0.8341,-0.4922,0.2367,0.1221,-0.2441,-0.3662,idle
2603596,-0.8334,-0.4926,0.2363,0.0000,-0.5493,-0.4272,idle
2603606,-0.8340,-0.4928,0.2373,-0.1221,-0.3662,-0.3052,idle
2603616,-0.8334,-0.4919,0.2373,0.0000,-0.1831,-0.4272,idle
2603626,-0.8337,-0.4915,0.2378,-0.0610,-0.3052,-0.4883,idle
2603636,-0.8339,-0.4921,0.2368,0.1221,-0.0610,-0.3662,idle
2603646,-0.8337,-0.4917,0.2365,0.0610,-0.0610,-0.3662,idle
2603656,-0.8344,-0.4927,0.2366,0.1221,-0.0610,-0.5493,idle
2603666,-0.8336,-0.4923,0.2363,0.1831,-0.0610,-0.3662,idle
2603676,-0.8341,-0.4910,0.2369,0.2441,-0.0610,-0.4272,idle
2603686,-0.8353,-0.4913,0.2365,0.2441,-0.1221,-0.5493,idle
2603706,-0.8347,-0.4922,0.2371,0.3662,0.1831,-0.4272,idle
2603716,-0.8342,-0.4923,0.2384,0.1831,0.0610,-0.4883,idle
2603726,-0.8331,-0.4927,0.2374,0.3052,0.1221,-0.6104,idle
2603736,-0.8329,-0.4934,0.2385,0.3052,0.1831,-0.6714,idle
2603746,-0.8322,-0.4933,0.2378,0.1831,0.1221,-0.7324,idle
2603756,-0.8324,-0.4919,0.2388,0.1831,-0.0610,-0.7935,idle
2603766,-0.8329,-0.4924,0.2378,0.3052,0.1831,-0.8545,idle
2603776,-0.8326,-0.4930,0.2383,0.3052,0.1831,-0.7324,idle
2603786,-0.8323,-0.4923,0.2377,0.2441,0.3052,-0.7935,idle
2603796,-0.8328,-0.4940,0.2388,0.5493,0.2441,-0.7324,idle
2603806,-0.8328,-0.4938,0.2371,0.3662,0.1831,-0.8545,idle
2603816,-0.8347,-0.4943,0.2366,0.3052,0.1831,-0.8545,idle
2603826,-0.8339,-0.4945,0.2374,0.3052,0.2441,-0.7935,idle
2603836,-0.8325,-0.4943,0.2373,0.1831,0.2441,-0.8545,idle
2603846,-0.8344,-0.4952,0.2391,0.1221,0.1831,-0.8545,idle
2603856,-0.8320,-0.4957,0.2378,0.0000,0.1221,-0.8545,idle
2603866,-0.8320,-0.4941,0.2399,0.1831,0.2441,-0.8545,idle
2603876,-0.8312,-0.4946,0.2386,-0.0610,0.1831,-0.9766,idle
2603886,-0.8324,-0.4954,0.2378,0.0000,0.1831,-0.7935,idle
2603896,-0.8339,-0.4960,0.2384,0.0610,0.0000,-0.7935,idle
2603906,-0.8312,-0.4954,0.2388,0.1221,-0.1221,-0.8545,idle
2603916,-0.8323,-0.4935,0.2390,15.5640,-0.3662,-0.7324,idle
2603936,-0.8320,-0.4918,0.2393,0.0000,-0.1831,-0.8545,idle
2603946,-0.8308,-0.4927,0.2388,-0.1221,-0.1831,-0.9766,idle
2603956,-0.8314,-0.4926,0.2389,-0.1221,-0.3662,-1.0986,idle
2603966,-0.8331,-0.4923,0.2385,0.1831,-0.4272,-1.0376,idle
2603976,-0.8344,-0.4922,0.2385,0.2441,-0.3052,-0.9766,idle
2603986,-0.8350,-0.4918,0.2374,0.4272,-0.0610,-0.9766,idle
2603996,-0.8335,-0.4922,0.2385,0.3662,-0.1221,-0.9766,idle
2604006,-0.8342,-0.4927,0.2386,0.4272,0.0610,-0.8545,idle
2604016,-0.8334,-0.4922,0.2390,0.4883,0.1221,-0.8545,idle
2604026,-0.8325,-0.4928,0.2382,0.4272,0.0610,-0.9155,idle
2604036,-0.8339,-0.4921,0.2379,0.2441,-0.1831,-0.9155,idle
2604046,-0.8318,-0.4913,0.2386,0.2441,-0.1831,-0.8545,idle
2604056,-0.8331,-0.4917,0.2388,0.3052,-0.3052,-0.8545,idle
2604066,-0.8333,-0.4918,0.2391,0.1831,-0.4272,-0.7935,idle
2604076,-0.8329,-0.4911,0.2394,0.2441,-0.1831,-0.6104,idle
2604086,-0.8341,-0.4926,0.2386,0.1831,0.0000,-0.6104,idle
2604106,-0.8326,-0.4926,0.2395,0.1221,0.0000,-0.5493,idle
2604116,-0.8330,-0.4927,0.2401,0.2441,0.0000,-0.6104,idle
2604126,-0.8324,-0.4926,0.2394,0.1221,0.1221,-0.7935,idle
2604136,-0.8323,-0.4926,0.2413,0.0000,0.0000,-0.7324,idle
2604146,-0.8328,-0.4929,0.2396,0.0610,-0.3662,-0.9155,idle
2604156,-0.8337,-0.4921,0.2391,0.0610,-0.4272,-0.9155,idle
2604166,-0.8333,-0.4927,0.2386,0.3662,-0.4272,-0.6714,idle
2604176,-0.8329,-0.4922,0.2389,0.3052,-0.5493,-0.8545,idle
2604186,-0.8341,-0.4918,0.2389,0.1831,-0.4272,-0.7935,idle
2604196,-0.8342,-0.4927,0.2395,0.1831,-0.2441,-0.6714,idle
2604206,-0.8326,-0.4919,0.2383,0.1221,-0.1831,-0.7935,idle
2604216,-0.8331,-0.4917,0.2383,0.0610,0.0000,-0.6714,idle
2604226,-0.8328,-0.4919,0.2390,0.0610,0.0610,-0.6714,idle
2604236,-0.8330,-0.4926,0.2389,0.1831,0.0610,-0.6104,idle
2604246,-0.8331,-0.4912,0.2382,0.1221,-0.0610,-0.7324,idle
2604256,-0.8334,-0.4904,0.2363,0.0610,-0.1831,-0.6714,idle
2604276,-0.8346,-0.4915,0.2366,0.1831,-0.3052,-0.6714,idle
2604286,-0.8346,-0.4927,0.2382,0.1221,-0.1831,-0.7324,idle
2604296,-0.8359,-0.4935,0.2384,0.3052,-0.3052,-0.7324,idle
2604306,-0.8354,-0.4956,0.2356,0.2441,-0.1221,-0.7324,idle
2604316,-0.8354,-0.4938,0.2399,-0.5493,1.0986,-0.9766,idle
2604326,-0.8314,-0.4921,0.2400,-0.3052,0.7935,-0.9155,idle
2604336,-0.8303,-0.4917,0.2410,-0.1221,0.1831,-0.8545,idle
2604346,-0.8311,-0.4935,0.2410,0.1831,-0.3052,-0.7324,idle
2604356,-0.8312,-0.4922,0.2406,0.0610,-0.1831,-0.7935,idle
2604366,-0.8317,-0.4926,0.2397,0.1831,0.0000,-0.8545,idle
2604376,-0.8319,-0.4923,0.2406,0.0610,-0.3052,-0.9155,idle
2604396,-0.8339,-0.4922,0.2397,0.1831,-0.3052,-0.7935,idle
2604406,-0.8331,-0.4913,0.2385,0.0610,-0.4883,-0.9766,idle
2604416,-0.8344,-0.4924,0.2390,0.0000,-0.4272,-0.9155,idle
2604426,-0.8356,-0.4912,0.2384,-0.1221,-0.3052,-0.9766,idle
2604436,-0.8346,-0.4890,0.2419,-0.6104,0.9766,-1.0376,idle
2604446,-0.8322,-0.4873,0.2404,-0.0610,0.1831,-0.9766,idle
2604456,-0.8323,-0.4882,0.2404,0.4272,-0.4272,-0.7935,idle
2604466,-0.8339,-0.4895,0.2397,0.4883,-0.4272,-0.6714,idle
2604476,-0.8356,-0.4911,0.2385,0.6104,-0.4272,-0.6714,idle
2604486,-0.8362,-0.4901,0.2386,0.5493,-0.3052,-0.7324,idle
2604506,-0.8368,-0.4913,0.2377,0.4883,-0.3052,-0.6714,idle
2604516,-0.8348,-0.4906,0.2384,0.6104,-0.2441,-0.7324,idle
2604526,-0.8333,-0.4902,0.2386,0.6104,-0.1831,-0.9766,idle
2604536,-0.8326,-0.4889,0.2396,0.3662,-0.0610,-0.9766,idle
2604546,-0.8329,-0.4879,0.2402,0.4883,0.0610,-1.0376,idle
2604556,-0.8333,-0.4895,0.2396,0.7935,-0.0610,-0.8545,idle
2604566,-0.8329,-0.4911,0.2394,0.7935,-0.3052,-0.8545,idle
2604576,-0.8346,-0.4921,0.2372,0.9766,-0.3052,-0.9766,idle
2604586,-0.8359,-0.4913,0.2400,0.4883,0.2441,-1.0986,idle
2604596,-0.8361,-0.4900,0.2394,0.4883,0.5493,-1.0376,idle
2604606,-0.8340,-0.4890,0.2395,0.6104,0.0000,-0.9766,idle
2604616,-0.8345,-0.4890,0.2394,0.6104,0.0610,-0.9766,idle
2604626,-0.8350,-0.4900,0.2393,0.7324,0.0000,-0.9155,idle
2604636,-0.8351,-0.4904,0.2396,0.7324,0.0000,-0.9766,idle
2604646,-0.8353,-0.4895,0.2389,0.7935,-0.0610,-0.9155,idle
2604656,-0.8333,-0.4906,0.2399,0.6104,-0.1831,-0.8545,idle
2604676,-0.8331,-0.4908,0.2405,0.6104,0.0610,-0.8545,idle
2604686,-0.8337,-0.4900,0.2402,0.3662,0.2441,-0.7935,idle
2604696,-0.8347,-0.4908,0.2394,0.2441,0.0610,-0.6714,idle
2604706,-0.8335,-0.4906,0.2390,0.2441,0.0000,-0.6714,idle
2604716,-0.8351,-0.4916,0.2404,0.2441,0.0610,-0.6104,idle
2604726,-0.8341,-0.4900,0.2400,0.0610,0.1831,-0.6104,idle
2604736,-0.8329,-0.4896,0.2401,0.1831,0.3052,-0.7324,idle
2604746,-0.8345,-0.4906,0.2395,0.2441,0.1831,-0.7324,idle
2604756,-0.8326,-0.4899,0.2391,0.3052,-0.0610,-0.8545,idle
2604766,-0.8330,-0.4907,0.2401,0.3662,-0.0610,-0.6714,idle
2604776,-0.8341,-0.4904,0.2390,0.2441,-0.3662,-0.6104,idle
2604786,-0.8345,-0.4899,0.2396,0.3052,-0.1221,-0.6104,idle
2604796,-0.8362,-0.4918,0.2400,0.0610,0.0000,-0.6104,idle
2604806,-0.8344,-0.4900,0.2395,0.3052,-0.1221,-0.6714,idle
2604816,-0.8334,-0.4899,0.2397,0.0610,-0.0610,-0.6714,idle
2604826,-0.8345,-0.4895,0.2390,0.2441,-0.1831,-0.6104,idle
2604846,-0.8342,-0.4913,0.2388,0.3052,0.0000,-0.4272,idle
2604856,-0.8345,-0.4910,0.2391,0.3662,-0.1221,-0.5493,idle
2604866,-0.8344,-0.4905,0.2391,0.4272,-0.0610,-0.4883,idle
2604876,-0.8341,-0.4908,0.2402,0.3662,-0.0610,-0.5493,idle
2604886,-0.8340,-0.4904,0.2400,0.3052,-0.3052,-0.6104,idle
2604896,-0.8331,-0.4910,0.2393,0.2441,-0.2441,-0.4272,idle
2604906,-0.8336,-0.4908,0.2402,0.3052,-0.0610,-0.5493,idle
2604916,-0.8344,-0.4907,0.2402,0.1831,-0.0610,-0.4272,idle
2604926,-0.8336,-0.4910,0.2397,0.0610,-0.0610,-0.4883,idle
2604936,-0.8333,-0.4912,0.2400,-0.0610,0.0000,-0.4883,idle
2604946,-0.8337,-0.4912,0.2405,0.2441,-0.1221,-0.3662,idle
2604956,-0.8339,-0.4896,0.2400,0.2441,0.0000,-0.3662,idle
2604966,-0.8345,-0.4893,0.2391,0.0610,-0.1221,-0.4883,idle
2604976,-0.8337,-0.4894,0.2378,0.1831,-0.1221,-0.3662,idle
2604986,-0.8337,-0.4896,0.2391,0.2441,-0.1221,-0.6104,idle
2604996,-0.8356,-0.4908,0.2383,0.0610,-0.1831,-0.6104,idle
2605006,-0.8359,-0.4897,0.2377,0.0610,-0.1831,-0.4272,idle
2605016,-0.8364,-0.4886,0.2379,-0.0610,0.0000,-0.4272,idle
2605026,-0.8356,-0.4894,0.2378,0.0000,-0.0610,-0.3052,idle
2605036,-0.8353,-0.4891,0.2382,-0.0610,0.1831,-0.4272,idle
2605046,-0.8334,-0.4893,0.2391,0.0610,0.1221,-0.4883,idle
2605056,-0.8329,-0.4902,0.2400,0.1221,-0.1221,-0.4883,idle
2605076,-0.8342,-0.4922,0.2382,0.3052,-0.1221,-0.4272,idle
2605086,-0.8341,-0.4919,0.2390,0.2441,-0.0610,-0.4272,idle
2605096,-0.8337,-0.4922,0.2397,0.1831,-0.1831,-0.6714,idle
2605106,-0.8325,-0.4919,0.2397,0.3662,-0.3662,-0.6714,idle
2605116,-0.8331,-0.4905,0.2404,0.4272,-0.1221,-0.7935,idle
2605126,-0.8340,-0.4889,0.2393,0.4272,0.0000,-0.7324,idle
2605136,-0.8325,-0.4894,0.2386,0.4272,-0.0610,-0.8545,idle
2605146,-0.8337,-0.4900,0.2383,0.5493,0.1221,-0.7935,idle
2605156,-0.8335,-0.4908,0.2389,0.4883,-0.1221,-0.7324,idle
2605166,-0.8348,-0.4905,0.2386,0.8545,-0.1221,-0.6714,idle
2605176,-0.8354,-0.4904,0.2382,0.5493,-0.1221,-0.6104,idle
2605186,-0.8345,-0.4912,0.2371,0.5493,-0.1221,-0.4883,idle
2605196,-0.8364,-0.4923,0.2383,0.3662,-0.0610,-0.5493,idle
2605206,-0.8347,-0.4927,0.2391,0.4272,-0.0610,-0.5493,idle
2605216,-0.8339,-0.4923,0.2391,0.4272,0.1221,-0.6104,idle
2605226,-0.8345,-0.4923,0.2390,0.4272,0.1831,-0.5493,idle
2605246,-0.8342,-0.4924,0.2415,0.3052,0.1221,-0.4272,idle
2605256,-0.8318,-0.4918,0.2412,0.4272,-0.1221,-0.6104,idle
2605266,-0.8313,-0.4913,0.2406,0.4272,-0.0610,-0.4883,idle
2605276,-0.8330,-0.4921,0.2390,0.4272,-0.1221,-0.4272,idle
2605286,-0.8331,-0.4930,0.2389,0.1831,-0.1831,-0.4272,idle
2605296,-0.8340,-0.4945,0.2397,0.1831,-0.1831,-0.3052,idle
2605306,-0.8337,-0.4923,0.2383,0.1221,-0.1831,-0.4272,idle
2605316,-0.8347,-0.4917,0.2382,0.0000,0.0000,-0.6104,idle
2605326,-0.8336,-0.4902,0.2380,0.0610,0.0000,-0.6104,idle
2605336,-0.8337,-0.4911,0.2383,-0.0610,0.0000,-0.7324,idle
2605346,-0.8333,-0.4904,0.2374,0.1221,-0.1831,-0.6104,idle
2605356,-0.8334,-0.4901,0.2386,0.2441,-0.1831,-0.4883,idle
2605366,-0.8333,-0.4904,0.2389,0.3052,0.0000,-0.4883,idle
2605376,-0.8326,-0.4915,0.2388,0.2441,-0.0610,-0.5493,idle
2605386,-0.8326,-0.4921,0.2401,0.4883,-0.1831,-0.4883,idle
2605396,-0.8334,-0.4915,0.2395,0.4272,-0.1221,-0.6104,idle
2605416,-0.8337,-0.4918,0.2388,0.5493,-0.2441,-0.5493,idle
2605426,-0.8331,-0.4916,0.2386,0.4883,-0.1221,-0.4883,idle
2605436,-0.8340,-0.4907,0.2394,0.3662,-0.1831,-0.4883,idle
2605446,-0.8335,-0.4917,0.2391,0.3662,-0.1831,-0.4272,idle
2605456,-0.8326,-0.4918,0.2384,0.4272,-0.1221,-0.6104,idle
2605466,-0.8323,-0.4917,0.2397,0.4272,0.0000,-0.4883,idle
2605476,-0.8325,-0.4918,0.2391,0.3052,-0.2441,-0.5493,idle
2605486,-0.8324,-0.4928,0.2388,0.4272,-0.2441,-0.4272,idle
2605496,-0.8323,-0.4924,0.2390,0.3052,-0.1831,-0.4883,idle
2605506,-0.8322,-0.4928,0.2395,0.3052,-0.3052,-0.6104,idle
2605516,-0.8330,-0.4922,0.2396,0.0000,-0.2441,-0.6104,idle
2605526,-0.8346,-0.4924,0.2380,0.1221,-0.1221,-0.5493,idle
2605536,-0.8335,-0.4921,0.2393,0.1831,-0.1831,-0.4883,idle
2605546,-0.8335,-0.4912,0.2393,0.2441,0.0000,-0.4272,idle
2605556,-0.8331,-0.4911,0.2386,0.3662,-0.3052,-0.5493,idle
2605566,-0.8330,-0.4908,0.2394,0.3052,-0.1831,-0.4883,idle
2605576,-0.8344,-0.4910,0.2384,0.2441,0.0000,-0.6104,idle
2605586,-0.8356,-0.4905,0.2389,0.2441,0.0610,-0.4883,idle
2605596,-0.8339,-0.4928,0.2384,0.3662,0.0000,-0.4272,idle
2605606,-0.8333,-0.4917,0.2379,0.1221,0.1221,-0.5493,idle
2605616,-0.8345,-0.4919,0.2388,0.0610,0.2441,-0.4883,idle
2605626,-0.8335,-0.4912,0.2390,0.3052,0.0610,-0.6104,idle
2605646,-0.8340,-0.4930,0.2390,0.6104,0.0000,-0.5493,idle
2605656,-0.8326,-0.4926,0.2384,0.4272,-0.0610,-0.5493,idle
2605666,-0.8344,-0.4927,0.2373,0.4272,-0.0610,-0.4883,idle
2605676,-0.8347,-0.4934,0.2369,0.4883,-0.0610,-0.5493,idle
2605686,-0.8346,-0.4940,0.2371,0.4272,-0.0610,-0.7935,idle
2605696,-0.8341,-0.4917,0.2400,0.2441,-0.1221,-0.7935,idle
2605706,-0.8320,-0.4885,0.2393,0.3662,-0.1831,-0.7324,idle
2605716,-0.8319,-0.4888,0.2401,0.4883,0.2441,-0.7324,idle
2605726,-0.8312,-0.4896,0.2396,0.7324,0.1221,-0.7324,idle
2605736,-0.8318,-0.4917,0.2401,0.7935,0.0610,-0.7935,idle
2605746,-0.8325,-0.4933,0.2394,0.7324,-0.1221,-0.6714,idle
2605756,-0.8335,-0.4935,0.2383,0.7935,-0.1221,-0.6714,idle
2605766,-0.8334,-0.4945,0.2377,0.7324,0.0610,-0.6104,idle
2605776,-0.8336,-0.4935,0.2385,0.6714,0.0000,-0.6104,idle
2605786,-0.8337,-0.4932,0.2389,0.5493,-0.0610,-0.5493,idle
2605796,-0.8335,-0.4930,0.2390,0.6104,0.1221,-0.4883,idle
2605816,-0.8322,-0.4944,0.2399,0.1831,0.1831,-0.4883,idle
2605826,-0.8323,-0.4943,0.2388,0.1831,0.0000,-0.6104,idle
2605836,-0.8313,-0.4939,0.2405,0.4272,0.0000,-0.4272,idle
2605846,-0.8324,-0.4945,0.2410,0.3662,0.0610,-0.4883,idle
2605856,-0.8314,-0.4939,0.2400,0.3662,0.0000,-0.4883,idle
2605866,-0.8322,-0.4928,0.2393,0.2441,0.0000,-0.3662,idle
2605876,-0.8335,-0.4934,0.2396,0.1221,-0.1221,-0.3662,idle
2605886,-0.8323,-0.4932,0.2397,0.2441,-0.0610,-0.3662,idle
2605896,-0.8330,-0.4933,0.2397,0.3052,-0.1221,-0.2441,idle
2605906,-0.8309,-0.4928,0.2397,0.1831,-0.0610,-0.2441,idle
2605916,-0.8328,-0.4940,0.2404,0.0000,0.0000,-0.4883,idle
2605926,-0.8325,-0.4933,0.2393,0.0610,-0.0610,-0.4883,idle
2605936,-0.8324,-0.4929,0.2399,0.1221,-0.1221,-0.6104,idle
2605946,-0.8331,-0.4928,0.2397,0.2441,-0.0610,-0.6104,idle
2605956,-0.8317,-0.4937,0.2406,0.2441,-0.1831,-0.6714,idle
2605966,-0.8322,-0.4929,0.2402,0.2441,-0.1221,-0.4272,idle
2605976,-0.8320,-0.4934,0.2407,0.2441,-0.0610,-0.4883,idle
2605986,-0.8320,-0.4933,0.2402,0.3662,0.1221,-0.5493,idle
2605996,-0.8323,-0.4932,0.2408,0.4883,0.1221,-0.5493,idle
2606006,-0.8317,-0.4928,0.2401,0.3052,-0.0610,-0.6104,idle
2606016,-0.8322,-0.4933,0.2397,0.4272,0.0000,-0.5493,idle
2606026,-0.8331,-0.4938,0.2390,0.3662,0.0610,-0.6104,idle
2606046,-0.8330,-0.4935,0.2404,0.1831,0.0610,-0.4883,idle
2606056,-0.8323,-0.4934,0.2404,0.3052,-0.1831,-0.7324,idle
2606066,-0.8329,-0.4946,0.2399,0.3052,-0.0610,-0.6714,idle
2606076,-0.8330,-0.4939,0.2402,0.4272,0.0610,-0.5493,idle
2606086,-0.8317,-0.4939,0.2396,0.3052,0.0000,-0.4272,idle
2606096,-0.8319,-0.4944,0.2417,0.4272,-0.0610,-0.6104,idle
2606106,-0.8301,-0.4945,0.2410,0.2441,-0.1221,-0.5493,idle
2606116,-0.8306,-0.4949,0.2406,0.1221,-0.0610,-0.4883,idle
2606126,-0.8313,-0.4945,0.2396,0.1221,-0.0610,-0.3662,idle
2606136,-0.8314,-0.4945,0.2405,0.1221,0.0000,-0.3052,idle
2606146,-0.8330,-0.4952,0.2413,0.2441,-0.0610,-0.4272,idle
2606156,-0.8322,-0.4940,0.2411,0.2441,-0.2441,-0.4883,idle
2606166,-0.8320,-0.4940,0.2399,0.1831,-0.0610,-0.3662,idle
2606176,-0.8314,-0.4938,0.2413,0.0000,0.0000,-0.3662,idle
2606186,-0.8315,-0.4929,0.2401,0.0000,-0.0610,-0.4883,idle
2606196,-0.8320,-0.4935,0.2405,0.1221,-0.1221,-0.4272,idle
2606216,-0.8323,-0.4944,0.2399,-0.0610,0.0000,-0.4272,idle
2606226,-0.8313,-0.4938,0.2406,-0.0610,0.1221,-0.3662,idle
2606236,-0.8304,-0.4939,0.2407,0.1221,0.0610,-0.3662,idle
2606246,-0.8312,-0.4954,0.2417,0.3662,-0.1831,-0.3662,idle
2606256,-0.8304,-0.4949,0.2417,0.0610,-0.3662,-0.3662,idle
2606266,-0.8322,-0.4962,0.2400,0.1221,-0.2441,-0.3662,idle
2606276,-0.8318,-0.4967,0.2399,0.1221,-0.1831,-0.4883,idle
2606286,-0.8315,-0.4965,0.2396,0.0610,-0.1831,-0.2441,idle
2606296,-0.8311,-0.4976,0.2399,0.0000,-0.3052,-0.4883,idle
2606306,-0.8290,-0.4955,0.2418,0.1221,-0.4883,-0.6104,idle
2606316,-0.8307,-0.4939,0.2417,-0.3662,-0.2441,-0.7324,idle
2606326,-0.8298,-0.4938,0.2413,0.0610,-0.1831,-0.6714,idle
2606336,-0.8293,-0.4937,0.2407,0.1221,-0.1221,-0.5493,idle
2606346,-0.8297,-0.4937,0.2404,0.2441,-0.2441,-0.5493,idle
2606356,-0.8301,-0.4938,0.2411,0.4272,-0.4272,-0.4883,idle
2606366,-0.8325,-0.4935,0.2401,0.3662,-0.6714,-0.4883,idle
2606386,-0.8325,-0.4950,0.2385,0.3662,-0.1831,-0.4272,idle
2606396,-0.8328,-0.4956,0.2397,0.4272,-0.1221,-0.4883,idle
2606406,-0.8319,-0.4954,0.2400,0.3662,-0.1831,-0.3662,idle
2606416,-0.8323,-0.4962,0.2405,0.4272,-0.1221,-0.3662,idle
2606426,-0.8313,-0.4955,0.2407,0.3052,-0.0610,-0.3662,idle
2606436,-0.8309,-0.4958,0.2394,0.2441,-0.2441,-0.3662,idle
2606446,-0.8300,-0.4951,0.2401,0.3052,-0.1221,-0.3662,idle
2606456,-0.8293,-0.4949,0.2419,0.3662,-0.2441,-0.3662,idle
2606466,-0.8309,-0.4965,0.2412,0.3052,-0.1221,-0.4272,idle
2606476,-0.8301,-0.4973,0.2401,0.2441,-0.2441,-0.3662,idle
2606486,-0.8309,-0.4968,0.2397,0.2441,-0.0610,-0.3052,idle
2606496,-0.8323,-0.4956,0.2399,0.2441,-0.1221,-0.4272,idle
2606506,-0.8312,-0.4954,0.2406,0.1831,-0.3662,-0.6104,idle
2606516,-0.8313,-0.4957,0.2410,0.0610,-0.0610,-0.6714,idle
2606526,-0.8307,-0.4948,0.2404,0.0000,-0.1221,-0.5493,idle
2606536,-0.8309,-0.4960,0.2405,-0.0610,-0.1221,-0.5493,idle
2606546,-0.8313,-0.4955,0.2399,0.0610,-0.1831,-0.7324,idle
2606556,-0.8302,-0.4948,0.2396,0.2441,-0.5493,-0.7935,idle
2606566,-0.8315,-0.4945,0.2391,0.1831,-0.3052,-0.7324,idle
2606576,-0.8309,-0.4940,0.2397,0.3052,-0.1831,-0.7935,idle
2606586,-0.8314,-0.4946,0.2395,0.3052,-0.2441,-0.8545,idle
2606596,-0.8317,-0.4943,0.2391,0.3662,-0.1221,-0.7935,idle
2606616,-0.8315,-0.4951,0.2390,0.2441,-0.0610,-0.7935,idle
2606626,-0.8314,-0.4946,0.2394,0.5493,0.1221,-0.7935,idle
2606636,-0.8318,-0.4957,0.2399,0.5493,0.3052,-0.7935,idle
2606646,-0.8314,-0.4954,0.2396,0.3662,0.1221,-0.7935,idle
2606656,-0.8328,-0.4971,0.2412,0.4272,0.1221,-0.8545,idle
2606666,-0.8312,-0.4952,0.2397,0.6104,0.2441,-0.7324,idle
2606676,-0.8317,-0.4961,0.2402,0.5493,0.1221,-0.6714,idle
2606686,-0.8308,-0.4962,0.2399,0.3662,0.0610,-0.7935,idle
2606696,-0.8314,-0.4963,0.2397,0.4883,0.1221,-0.7935,idle
2606706,-0.8313,-0.4956,0.2395,0.5493,0.1831,-0.8545,idle
2606716,-0.8314,-0.4960,0.2394,0.5493,0.2441,-0.7324,idle
2606726,-0.8307,-0.4957,0.2401,0.4883,0.2441,-0.7935,idle
2606736,-0.8306,-0.4965,0.2405,0.5493,0.1831,-0.8545,idle
2606746,-0.8301,-0.4952,0.2407,0.3052,0.1221,-0.8545,idle
2606756,-0.8289,-0.4952,0.2401,0.3662,0.0610,-0.9155,idle
2606766,-0.8300,-0.4961,0.2407,0.4272,0.2441,-0.9155,idle
2606786,-0.8323,-0.4957,0.2402,0.5493,0.0610,-0.9155,idle
2606796,-0.8319,-0.4960,0.2397,0.3052,-0.0610,-0.8545,idle
2606806,-0.8308,-0.4957,0.2389,0.3052,0.1221,-0.8545,idle
2606816,-0.8323,-0.4969,0.2397,0.3052,0.1221,-0.7324,idle
2606826,-0.8323,-0.4958,0.2393,0.2441,0.1221,-0.8545,idle
2606836,-0.8313,-0.4935,0.2399,0.3662,0.1221,-0.9155,idle
2606846,-0.8311,-0.4939,0.2405,0.4883,0.0610,-0.7324,idle
2606856,-0.8293,-0.4954,0.2410,0.4883,-0.0610,-0.8545,idle
2606866,-0.8308,-0.4961,0.2412,0.4272,0.0000,-0.9766,idle
2606876,-0.8313,-0.4963,0.2408,0.4272,0.0000,-0.8545,idle
2606886,-0.8326,-0.4969,0.2389,0.3662,-0.1221,-0.8545,idle
2606896,-0.8324,-0.4965,0.2384,0.3052,-0.4272,-0.8545,idle
2606906,-0.8317,-0.4969,0.2391,0.3052,-0.3662,-0.8545,idle
2606916,-0.8313,-0.4954,0.2390,0.1831,-0.2441,-0.9155,idle
2606926,-0.8315,-0.4939,0.2390,0.1831,-0.1221,-1.0376,idle
2606936,-0.8320,-0.4937,0.2407,0.1221,-0.2441,-1.0986,idle
2606956,-0.8298,-0.4935,0.2410,0.4272,-0.4272,-1.0986,idle
2606966,-0.8315,-0.4932,0.2402,0.3662,-0.3662,-1.0376,idle
2606976,-0.8329,-0.4929,0.2404,0.3662,-0.4883,-1.0376,idle
2606986,-0.8323,-0.4935,0.2401,0.4272,-0.4883,-1.0376,idle
2606996,-0.8340,-0.4935,0.2396,0.1221,-0.3662,-1.0376,idle
2607006,-0.8335,-0.4932,0.2399,0.1831,-0.5493,-1.0986,idle
2607016,-0.8340,-0.4941,0.2402,0.1831,-0.4272,-1.0986,idle
2607026,-0.8341,-0.4926,0.2389,0.1831,-0.2441,-1.0376,idle
2607036,-0.8341,-0.4922,0.2388,0.2441,-0.3662,-0.9766,idle
2607046,-0.8342,-0.4923,0.2384,0.3662,-0.4272,-0.9766,idle
2607056,-0.8344,-0.4938,0.2402,0.4883,-0.2441,-1.0376,idle
2607066,-0.8348,-0.4938,0.2385,0.5493,0.0000,-0.9766,idle
2607076,-0.8326,-0.4924,0.2411,-0.0610,0.3662,-0.9766,idle
2607086,-0.8322,-0.4930,0.2382,0.4272,-0.2441,-0.9155,idle
2607096,-0.8326,-0.4933,0.2385,0.4883,-0.4883,-0.9155,idle
2607106,-0.8348,-0.4957,0.2396,0.4883,-0.4883,-0.9766,idle
2607116,-0.8325,-0.4927,0.2401,0.5493,0.0610,-0.9766,idle
2607126,-0.8324,-0.4921,0.2401,0.2441,-0.0610,-0.9766,idle
2607136,-0.8320,-0.4926,0.2417,0.3052,-0.1221,-1.0986,idle
2607146,-0.8319,-0.4917,0.2397,0.4883,-0.2441,-0.9766,idle
2607156,-0.8319,-0.4923,0.2410,0.4272,-0.1831,-1.0376,idle
2607166,-0.8325,-0.4927,0.2405,0.4272,-0.3052,-1.0986,idle
2607186,-0.8336,-0.4919,0.2400,0.5493,-0.0610,-1.0376,idle
2607196,-0.8341,-0.4918,0.2400,0.4883,0.0000,-0.9766,idle
2607206,-0.8325,-0.4923,0.2388,0.5493,0.0610,-0.9766,idle
2607216,-0.8331,-0.4922,0.2389,0.6104,-0.1221,-1.0986,idle
2607226,-0.8340,-0.4924,0.2378,0.6104,-0.0610,-1.0376,idle
2607236,-0.8333,-0.4932,0.2388,0.6714,-0.2441,-1.0376,idle
2607246,-0.8344,-0.4921,0.2385,0.6104,-0.1831,-1.0986,idle
2607256,-0.8324,-0.4912,0.2378,0.6104,-0.1831,-1.0986,idle
2607266,-0.8335,-0.4911,0.2386,0.5493,-0.0610,-0.9766,idle
2607276,-0.8340,-0.4906,0.2384,0.4883,-0.0610,-0.9155,idle
2607286,-0.8354,-0.4919,0.2377,0.3662,0.5493,-1.0986,idle
2607296,-0.8337,-0.4908,0.2389,0.4883,0.6714,-1.0376,idle
2607306,-0.8320,-0.4910,0.2394,0.5493,0.2441,-0.9766,idle
2607316,-0.8334,-0.4911,0.2406,0.7935,0.0000,-0.9766,idle
2607326,-0.8335,-0.4927,0.2390,0.7324,0.0610,-0.9766,idle
2607336,-0.8333,-0.4926,0.2406,0.4883,0.5493,-1.0376,idle
2607356,-0.8322,-0.4908,0.2395,0.7935,-0.1221,-1.0376,idle
2607366,-0.8342,-0.4910,0.2406,0.6104,0.0000,-1.0376,idle
2607376,-0.8330,-0.4915,0.2396,0.5493,0.1221,-1.0986,idle
2607386,-0.8328,-0.4907,0.2407,0.4883,-0.0610,-0.9766,idle
2607396,-0.8347,-0.4911,0.2405,0.3052,-0.0610,-1.0376,idle
2607406,-0.8353,-0.4904,0.2386,0.4272,-0.0610,-0.9766,idle
2607416,-0.8342,-0.4911,0.2389,0.5493,-0.1221,-0.9766,idle
2607426,-0.8344,-0.4896,0.2397,0.4272,-0.0610,-0.9766,idle
2607436,-0.8329,-0.4904,0.2401,0.4883,-0.0610,-0.9155,idle
2607446,-0.8329,-0.4910,0.2406,0.4883,-0.0610,-0.9766,idle
2607456,-0.8333,-0.4918,0.2394,0.4883,-0.1831,-0.8545,idle
2607466,-0.8348,-0.4927,0.2385,0.4883,-0.2441,-0.7935,idle
2607476,-0.8348,-0.4922,0.2373,0.3662,-0.1831,-0.7935,idle
2607486,-0.8354,-0.4916,0.2386,0.3662,-0.2441,-0.8545,idle
2607496,-0.8335,-0.4924,0.2379,0.3662,-0.1831,-0.7935,idle
2607506,-0.8341,-0.4924,0.2390,0.3052,-0.1831,-0.9155,idle
2607526,-0.8329,-0.4896,0.2396,0.3052,-0.1221,-1.0376,idle
2607536,-0.8333,-0.4906,0.2395,0.4272,-0.1831,-1.0376,idle
2607546,-0.8329,-0.4897,0.2385,0.5493,-0.3662,-0.9766,idle
2607556,-0.8354,-0.4917,0.2395,0.6104,-0.2441,-1.0376,idle
2607566,-0.8346,-0.4908,0.2395,0.3052,0.0610,-0.9766,idle
2607576,-0.8357,-0.4891,0.2395,0.1221,0.1831,-0.9766,idle
2607586,-0.8339,-0.4889,0.2396,0.2441,0.1831,-0.9155,idle
2607596,-0.8337,-0.4893,0.2391,0.5493,-0.1831,-0.9766,idle
2607606,-0.8346,-0.4904,0.2388,0.4272,-0.1221,-0.8545,idle
2607616,-0.8348,-0.4901,0.2390,0.5493,-0.1831,-0.7935,idle
2607626,-0.8359,-0.4895,0.2378,0.1831,-0.1221,-0.7324,idle
2607636,-0.8358,-0.4906,0.2390,0.2441,-0.4272,-0.6104,idle
2607646,-0.8365,-0.4908,0.2399,0.0000,0.0610,-0.6104,idle
2607656,-0.8330,-0.4889,0.2417,-0.1831,0.6104,-0.7324,idle
2607666,-0.8331,-0.4884,0.2393,0.2441,-0.1221,-0.4883,idle
2607676,-0.8341,-0.4900,0.2393,0.3662,-0.3662,-0.3662,idle
2607686,-0.8358,-0.4902,0.2380,0.0610,-0.3662,-0.4883,idle
2607696,-0.8350,-0.4896,0.2397,0.1221,-0.2441,-0.3662,idle
2607706,-0.8333,-0.4893,0.2384,0.0610,-0.1831,-0.4883,idle
2607716,-0.8346,-0.4891,0.2396,0.0000,-0.1831,-0.4272,idle
2607726,-0.8344,-0.4896,0.2390,0.2441,-0.1831,-0.6104,idle
2607736,-0.8340,-0.4896,0.2395,0.1831,-0.1221,-0.7324,idle
2607756,-0.8337,-0.4901,0.2391,0.1221,-0.1221,-0.6104,idle
2607766,-0.8345,-0.4899,0.2397,0.0610,-0.1831,-0.5493,idle
2607776,-0.8362,-0.4899,0.2386,0.1221,-0.3052,-0.4272,idle
2607786,-0.8356,-0.4899,0.2374,0.1221,-0.2441,-0.4883,idle
2607796,-0.8362,-0.4895,0.2368,0.0000,-0.0610,-0.5493,idle
2607806,-0.8352,-0.4900,0.2384,-0.1221,-0.1831,-0.6104,idle
2607816,-0.8353,-0.4897,0.2379,-0.0610,-0.1831,-0.5493,idle
2607826,-0.8354,-0.4902,0.2384,0.0000,-0.0610,-0.4883,idle
2607836,-0.8341,-0.4895,0.2386,0.1221,0.0000,-0.6714,idle
2607846,-0.8347,-0.4899,0.2396,0.1221,0.1831,-0.4883,idle
2607856,-0.8348,-0.4908,0.2400,0.3052,-0.1221,-0.4883,idle
2607866,-0.8340,-0.4897,0.2393,0.1831,0.1831,-0.4272,idle
2607876,-0.8348,-0.4904,0.2384,0.0610,0.0610,-0.3662,idle
2607886,-0.8342,-0.4901,0.2386,0.0610,-0.1221,-0.4272,idle
2607896,-0.8350,-0.4913,0.2395,0.1221,0.0000,-0.3662,idle
2607906,-0.8345,-0.4913,0.2386,0.0000,0.1221,-0.4272,idle
2607926,-0.8328,-0.4896,0.2391,0.1831,0.3052,-0.4883,idle
2607936,-0.8337,-0.4901,0.2395,0.0000,0.0610,-0.3662,idle
2607946,-0.8339,-0.4900,0.2388,-0.1831,-0.0610,-0.4272,idle
2607956,-0.8347,-0.4919,0.2397,-0.0610,-0.0610,-0.4272,idle
2607966,-0.8334,-0.4905,0.2391,0.0610,0.1221,-0.3052,idle
2607976,-0.8356,-0.4913,0.2383,-0.1221,0.0000,-0.2441,idle
2607986,-0.8346,-0.4908,0.2389,-0.1831,-0.0610,-0.4883,idle
2607996,-0.8345,-0.4910,0.2391,-0.0610,0.0610,-0.4883,idle
2608006,-0.8348,-0.4913,0.2399,0.0610,0.0610,-0.4272,idle
2608016,-0.8330,-0.4907,0.2402,0.1221,-0.0610,-0.4883,idle
2608026,-0.8340,-0.4923,0.2390,0.0610,-0.1221,-0.3662,idle
2608036,-0.8344,-0.4924,0.2384,0.0000,-0.1221,-0.3662,idle
2608046,-0.8344,-0.4924,0.2375,-0.0610,-0.0610,-0.4272,idle
2608056,-0.8347,-0.4934,0.2386,-0.1831,0.0610,-0.4883,idle
2608066,-0.8342,-0.4919,0.2389,-0.1831,-0.1221,-0.5493,idle
2608076,-0.8324,-0.4918,0.2397,-0.0610,0.0000,-0.4883,idle
2608096,-0.8326,-0.4895,0.2410,0.3052,-0.2441,-0.4272,idle
2608106,-0.8324,-0.4900,0.2404,0.4883,-0.2441,-0.6714,idle
2608116,-0.8337,-0.4913,0.2396,0.1831,-0.1831,-0.7324,idle
2608126,-0.8331,-0.4905,0.2399,0.1831,-0.0610,-0.5493,idle
2608136,-0.8348,-0.4915,0.2395,0.3052,0.0000,-0.4272,idle
2608146,-0.8359,-0.4917,0.2377,0.2441,0.0000,-0.5493,idle
2608156,-0.8353,-0.4902,0.2382,0.1831,0.0610,-0.3662,idle
2608166,-0.8352,-0.4917,0.2383,0.1221,0.1831,-0.3662,idle
2608176,-0.8345,-0.4906,0.2389,0.1221,0.3052,-0.3662,idle
2608186,-0.8340,-0.4911,0.2384,0.1831,0.3052,-0.3662,idle
2608196,-0.8337,-0.4916,0.2394,0.4272,0.1831,-0.3662,idle
2608206,-0.8324,-0.4917,0.2402,0.5493,0.1221,-0.3662,idle
2608216,-0.8325,-0.4926,0.2419,0.5493,0.1221,-0.3662,idle
2608226,-0.8324,-0.4935,0.2411,0.4272,0.1221,-0.2441,idle
2608236,-0.8315,-0.4937,0.2417,0.4272,0.1221,-0.2441,idle
2608246,-0.8312,-0.4934,0.2400,0.4883,0.1831,-0.3052,idle
2608256,-0.8320,-0.4934,0.2402,0.3662,-0.1221,-0.4272,idle
2608266,-0.8323,-0.4933,0.2396,0.1221,-0.1221,-0.3662,idle
2608276,-0.8329,-0.4926,0.2404,0.2441,0.0610,-0.1221,idle
2608286,-0.8328,-0.4916,0.2402,0.2441,0.1221,-0.1831,idle
2608296,-0.8325,-0.4918,0.2406,0.2441,0.0610,-0.3662,idle
2608306,-0.8324,-0.4921,0.2404,0.1221,0.0000,-0.3662,idle
2608326,-0.8323,-0.4923,0.2391,-0.1221,-0.2441,-0.3052,idle
2608336,-0.8328,-0.4926,0.2407,0.0610,-0.0610,-0.3052,idle
2608346,-0.8326,-0.4934,0.2396,0.0000,-0.1831,-0.3662,idle
2608356,-0.8325,-0.4937,0.2399,0.0610,-0.0610,-0.3052,idle
2608366,-0.8325,-0.4934,0.2394,0.0610,-0.3052,-0.3662,idle
2608376,-0.8331,-0.4934,0.2396,-0.1221,-0.4272,-0.3052,idle
2608386,-0.8329,-0.4934,0.2400,-0.0610,-0.1831,-0.3052,idle
2608396,-0.8328,-0.4929,0.2395,0.0610,-0.2441,-0.3052,idle
2608406,-0.8340,-0.4938,0.2407,0.0610,-0.3052,-0.2441,idle
2608416,-0.8329,-0.4932,0.2394,-0.1221,-0.1831,-0.1831,idle
2608426,-0.8322,-0.4928,0.2407,0.0000,-0.1831,-0.1831,idle
2608436,-0.8324,-0.4921,0.2397,0.0610,-0.1831,-0.3662,idle
2608446,-0.8325,-0.4913,0.2396,-0.1221,-0.2441,-0.3662,idle
2608456,-0.8330,-0.4930,0.2404,0.0000,-0.1831,-0.2441,idle
2608466,-0.8330,-0.4922,0.2406,0.0000,-0.1831,-0.3052,idle
2608476,-0.8329,-0.4932,0.2422,0.1831,-15.5640,-0.2441,idle
2608496,-0.8326,-0.4926,0.2407,0.1221,0.0610,-0.1831,idle
2608506,-0.8323,-0.4939,0.2411,0.1221,0.1221,-0.3662,idle
2608516,-0.8315,-0.4928,0.2404,0.0610,-0.0610,-0.4883,idle
2608526,-0.8330,-0.4930,0.2395,0.3052,0.0000,-0.3662,idle
2608536,-0.8336,-0.4924,0.2397,0.2441,-0.1221,-0.3052,idle
2608546,-0.8337,-0.4932,0.2396,0.2441,-0.2441,-0.3052,idle
2608556,-0.8326,-0.4927,0.2399,0.1831,-0.1831,-0.4272,idle
2608566,-0.8324,-0.4930,0.2408,0.3662,-0.0610,-0.4272,idle
2608576,-0.8319,-0.4922,0.2399,0.4272,0.0000,-0.2441,idle
2608586,-0.8315,-0.4929,0.2400,0.3662,-0.1221,-0.4272,idle
2608596,-0.8323,-0.4948,0.2417,0.2441,0.1831,-0.4883,idle
2608606,-0.8308,-0.4956,0.2399,0.2441,0.0000,-0.4883,idle
2608616,-0.8326,-0.4956,0.2395,0.1831,-0.0610,-0.6104,idle
2608626,-0.8320,-0.4956,0.2404,0.3052,0.1831,-0.4883,idle
2608636,-0.8315,-0.4955,0.2397,0.1221,0.0610,-0.6104,idle
2608646,-0.8323,-0.4930,0.2400,0.0610,0.0000,-0.6714,idle
2608666,-0.8313,-0.4908,0.2408,0.1831,0.2441,-0.6104,idle
2608676,-0.8322,-0.4912,0.2411,0.3052,0.3052,-0.7324,idle
2608686,-0.8320,-0.4928,0.2397,0.6104,0.1831,-0.5493,idle
2608696,-0.8328,-0.4938,0.2396,0.5493,-0.0610,-0.4883,idle
2608706,-0.8333,-0.4940,0.2406,0.4883,0.0610,-0.4883,idle
2608726,-0.8324,-0.4941,0.2407,0.7324,0.3052,-0.3662,idle
2608736,-0.8322,-0.4950,0.2401,0.6714,0.1831,-0.3662,idle
2608746,-0.8306,-0.4945,0.2408,0.7935,0.2441,-0.3662,idle
2608756,-0.8306,-0.4951,0.2417,0.6714,0.3662,-0.4272,idle
2608766,-0.8300,-0.4952,0.2412,0.5493,0.3662,-0.3662,idle
2608776,-0.8293,-0.4957,0.2435,0.5493,0.0000,-0.3662,idle
2608786,-0.8297,-0.4957,0.2430,0.6714,0.0000,-0.4272,idle
2608796,-0.8286,-0.4958,0.2428,0.6104,0.0610,-0.4883,idle
2608806,-0.8297,-0.4950,0.2418,0.4883,0.1831,-0.4272,idle
2608816,-0.8295,-0.4962,0.2424,0.5493,-0.1831,-0.3662,idle
2608826,-0.8301,-0.4960,0.2421,0.3662,-0.0610,-0.5493,idle
2608836,-0.8307,-0.4954,0.2430,0.4883,-0.3052,-0.4272,idle
2608846,-0.8297,-0.4957,0.2418,0.1831,-0.2441,-0.3662,idle
2608856,-0.8306,-0.4960,0.2415,0.1831,-0.1221,-0.4883,idle
2608866,-0.8306,-0.4960,0.2411,0.1831,-0.3662,-0.6104,idle
2608876,-0.8298,-0.4956,0.2415,0.0610,-0.3662,-0.3662,idle
2608896,-0.8315,-0.4962,0.2408,-0.0610,-0.2441,-0.4272,idle
2608906,-0.8318,-0.4967,0.2424,-0.2441,-0.3052,-0.4272,idle
2608916,-0.8314,-0.4960,0.2423,-0.3052,-0.5493,-0.5493,idle
2608926,-0.8312,-0.4952,0.2415,-0.1831,-0.3052,-0.4883,idle
2608936,-0.8314,-0.4948,0.2421,-0.3662,-0.3662,-0.4272,idle
2608946,-0.8315,-0.4944,0.2416,-0.2441,-0.1221,-0.4272,idle
2608956,-0.8322,-0.4954,0.2419,-0.1221,-0.2441,-0.4272,idle
2608966,-0.8315,-0.4933,0.2408,-0.1831,-0.4272,-0.4883,idle
2608976,-0.8325,-0.4946,0.2406,-0.1831,-0.3662,-0.5493,idle
2608986,-0.8314,-0.4940,0.2402,-0.0610,-0.3662,-0.5493,idle
2608996,-0.8323,-0.4934,0.2402,0.0610,-0.1831,-0.4883,idle
2609006,-0.8309,-0.4946,0.2410,-0.1831,-0.0610,-0.4883,idle
2609016,-0.8319,-0.4948,0.2408,-0.1221,0.0000,-0.5493,idle
2609026,-0.8317,-0.4944,0.2423,0.2441,0.1221,-0.5493,idle
2609036,-0.8318,-0.4948,0.2416,0.3662,0.1221,-0.6104,idle
2609046,-0.8308,-0.4954,0.2421,0.3052,0.2441,-0.6104,idle
2609066,-0.8302,-0.4954,0.2415,0.4883,0.1221,-0.4883,idle
2609076,-0.8287,-0.4960,0.2417,0.3662,-0.0610,-0.6104,idle
2609086,-0.8295,-0.4958,0.2407,0.3662,-0.0610,-0.5493,idle
2609096,-0.8317,-0.4978,0.2394,0.3052,-0.0610,-0.4883,idle
2609106,-0.8314,-0.4967,0.2401,0.0610,-0.0610,-0.7935,idle
2609116,-0.8323,-0.4952,0.2393,0.0610,0.1221,-0.6714,idle
2609126,-0.8322,-0.4944,0.2393,0.0000,0.0000,-0.6714,idle
2609136,-0.8320,-0.4934,0.2404,0.0610,-0.0610,-0.6714,idle
2609146,-0.8312,-0.4943,0.2412,0.1221,0.0000,-0.6714,idle
2609156,-0.8311,-0.4948,0.2406,0.3052,-0.0610,-0.5493,idle
2609166,-0.8308,-0.4949,0.2399,0.4883,0.0610,-0.4883,idle
2609176,-0.8308,-0.4955,0.2397,0.5493,-0.2441,-0.6104,idle
2609186,-0.8307,-0.4973,0.2406,0.4272,-0.1221,-0.6104,idle
2609196,-0.8311,-0.4980,0.2411,0.4272,-0.0610,-0.5493,idle
2609206,-0.8296,-0.4966,0.2402,0.4272,-0.0610,-0.4272,idle
2609216,-0.8290,-0.4963,0.2419,0.3052,0.1221,-0.6714,idle
2609226,-0.8290,-0.4961,0.2422,0.4272,0.0000,-0.7324,idle
2609236,-0.8291,-0.4965,0.2410,0.5493,-0.3052,-0.6714,idle
2609246,-0.8285,-0.4962,0.2415,0.4883,-0.2441,-0.5493,idle
2609256,-0.8289,-0.4972,0.2412,0.4883,-0.3662,-0.4883,idle
2609266,-0.8301,-0.4958,0.2399,0.5493,-0.4883,-0.7324,idle
2609276,-0.8318,-0.4969,0.2410,0.5493,-0.3052,-0.4883,idle
2609296,-0.8311,-0.4972,0.2406,0.7324,-0.1831,-0.6104,idle
2609306,-0.8312,-0.4978,0.2410,0.5493,-0.2441,-0.4272,idle
2609316,-0.8293,-0.4968,0.2407,0.4272,-0.2441,-0.4883,idle
2609326,-0.8302,-0.4967,0.2408,0.4272,-0.3662,-0.4272,idle
2609336,-0.8302,-0.4962,0.2406,0.3052,-0.3662,-0.4883,idle
2609346,-0.8301,-0.4965,0.2415,0.3662,-0.4883,-0.4883,idle
2609356,-0.8307,-0.4979,0.2429,0.4272,-0.3662,-0.4272,idle
2609366,-0.8311,-0.4966,0.2419,0.1221,-0.3662,-0.4272,idle
2609376,-0.8313,-0.4973,0.2404,0.1221,-0.3052,-0.3052,idle
2609386,-0.8313,-0.4979,0.2405,0.0610,-0.3052,-0.4272,idle
2609396,-0.8313,-0.4967,0.2410,0.1221,-0.2441,-0.4272,idle
2609406,-0.8308,-0.4961,0.2408,0.1221,-0.2441,-0.4272,idle
2609416,-0.8293,-0.4950,0.2413,0.1831,-0.3662,-0.5493,idle
2609426,-0.8308,-0.4951,0.2400,0.0610,-0.3662,-0.5493,idle
2609436,-0.8300,-0.4944,0.2404,0.0610,-0.4272,-0.5493,idle
2609446,-0.8309,-0.4946,0.2410,0.1221,-0.5493,-0.5493,idle
2609466,-0.8319,-0.4946,0.2404,0.3052,-0.1831,-0.5493,idle
2609476,-0.8324,-0.4961,0.2410,0.3662,-0.1831,-0.5493,idle
2609486,-0.8315,-0.4960,0.2400,0.4883,-0.1221,-0.5493,idle
2609496,-0.8314,-0.4958,0.2412,0.3052,-0.1831,-0.6714,idle
2609506,-0.8309,-0.4954,0.2407,0.3052,0.0000,-0.8545,idle
2609516,-0.8306,-0.4958,0.2399,0.3052,-0.1221,-0.8545,idle
2609526,-0.8307,-0.4949,0.2396,0.2441,0.0000,-0.6714,idle
2609536,-0.8313,-0.4954,0.2391,0.4272,-0.0610,-0.7324,idle
2609546,-0.8317,-0.4956,0.2394,0.5493,0.0000,-0.8545,idle
2609556,-0.8319,-0.4967,0.2400,0.1831,0.0000,-0.7935,idle
2609566,-0.8317,-0.4962,0.2396,0.1831,0.0610,-0.7324,idle
2609576,-0.8317,-0.4960,0.2400,0.3662,0.1221,-0.8545,idle
2609586,-0.8322,-0.4950,0.2395,0.2441,0.1831,-0.9155,idle
2609596,-0.8314,-0.4948,0.2394,0.3662,0.1831,-0.9766,idle
2609606,-0.8313,-0.4943,0.2400,0.3662,0.2441,-0.9766,idle
2609616,-0.8301,-0.4940,0.2406,0.3662,0.1221,-0.9155,idle
2609636,-0.8319,-0.4944,0.2397,0.6104,0.2441,-0.9766,idle
2609646,-0.8318,-0.4948,0.2391,0.6104,0.3052,-0.9766,idle
2609656,-0.8325,-0.4954,0.2385,0.6104,0.3662,-0.9155,idle
2609666,-0.8326,-0.4952,0.2385,0.5493,0.3662,-0.9155,idle
2609676,-0.8326,-0.4961,0.2391,0.3662,0.2441,-0.9155,idle
2609686,-0.8311,-0.4958,0.2397,0.6104,0.4272,-0.9766,idle
2609696,-0.8312,-0.4958,0.2406,0.6714,0.3662,-0.9155,idle
2609706,-0.8296,-0.4965,0.2407,0.7324,0.4883,-0.8545,idle
2609716,-0.8291,-0.4968,0.2415,0.6104,0.3052,-0.9766,idle
2609726,-0.8297,-0.4978,0.2417,0.6714,0.3662,-0.9766,idle
2609736,-0.8298,-0.4974,0.2426,0.4883,0.1831,-0.9766,idle
2609746,-0.8298,-0.4974,0.2399,0.6104,0.1221,-0.9155,idle
2609756,-0.8300,-0.4980,0.2413,0.5493,-0.1831,-0.9155,idle
2609766,-0.8295,-0.4976,0.2404,0.5493,-0.2441,-0.9155,idle
2609776,-0.8295,-0.4966,0.2404,0.3662,-0.2441,-0.9766,idle
2609786,-0.8297,-0.4955,0.2401,0.3052,-0.0610,-1.0376,idle
2609796,-0.8298,-0.4962,0.2412,0.2441,-0.3662,-1.0376,idle
2609806,-0.8318,-0.4963,0.2418,0.1831,-0.3052,-0.9766,idle
2609816,-0.8314,-0.4965,0.2406,0.4272,-0.6714,-0.9766,idle
2609826,-0.8323,-0.4952,0.2401,0.4272,-0.4883,-0.9766,idle
2609836,-0.8328,-0.4939,0.2405,0.1831,-0.5493,-0.9155,idle
2609846,-0.8328,-0.4937,0.2404,0.0000,-0.4272,-0.7324,idle
2609866,-0.8319,-0.4948,0.2402,0.3052,-0.3052,-0.8545,idle
2609876,-0.8322,-0.4941,0.2397,0.2441,-0.3662,-0.9155,idle
2609886,-0.8322,-0.4944,0.2388,0.1831,-0.3662,-0.7324,idle
2609896,-0.8325,-0.4935,0.2395,0.1831,-0.4883,-0.8545,idle
2609906,-0.8322,-0.4927,0.2401,0.3052,-0.4272,-0.9155,idle
2609916,-0.8323,-0.4937,0.2406,0.3662,-0.3052,-0.7935,idle
2609926,-0.8326,-0.4933,0.2405,0.2441,-0.1831,-0.7935,idle
2609936,-0.8331,-0.4940,0.2401,0.2441,-0.2441,-0.7324,idle
2609946,-0.8330,-0.4940,0.2408,0.0610,-0.3052,-0.8545,idle
2609956,-0.8326,-0.4935,0.2399,0.2441,-0.3662,-0.7324,idle
2609966,-0.8313,-0.4928,0.2406,0.1221,-0.4272,-0.9766,idle
2609976,-0.8314,-0.4916,0.2404,0.3052,-0.4883,-1.0376,idle
2609986,-0.8319,-0.4919,0.2395,0.3052,-0.3662,-0.9155,idle
2609996,-0.8330,-0.4934,0.2396,0.4272,-0.4883,-1.0376,idle
2610006,-0.8323,-0.4923,0.2393,0.5493,-0.6104,-1.0376,idle
2610016,-0.8323,-0.4919,0.2400,0.3662,-0.4883,-1.0376,idle
2610036,-0.8333,-0.4938,0.2388,0.3052,-0.3052,-0.9155,idle
2610046,-0.8340,-0.4937,0.2388,0.2441,-0.0610,-0.9155,idle
2610056,-0.8337,-0.4929,0.2399,0.3052,-0.0610,-0.9766,idle
2610066,-0.8326,-0.4922,0.2391,0.3052,0.0000,-1.0986,idle
2610076,-0.8341,-0.4929,0.2401,0.4272,0.0000,-1.0376,idle
2610086,-0.8325,-0.4927,0.2388,0.4883,0.0610,-1.0376,idle
2610096,-0.8333,-0.4926,0.2390,0.3662,-0.1221,-1.0986,idle
2610106,-0.8330,-0.4917,0.2388,0.4272,0.0000,-1.1597,idle
2610116,-0.8330,-0.4922,0.2385,0.5493,-0.0610,-1.1597,idle
2610126,-0.8329,-0.4932,0.2386,0.4883,0.0000,-1.0376,idle
2610136,-0.8340,-0.4927,0.2394,0.6714,-0.0610,-0.9766,idle
2610146,-0.8324,-0.4927,0.2396,0.6714,0.0000,-0.9155,idle
2610156,-0.8314,-0.4927,0.2395,0.6104,-0.0610,-0.9766,idle
2610166,-0.8308,-0.4919,0.2401,0.6714,-0.1221,-0.9155,idle
2610176,-0.8324,-0.4935,0.2396,0.6104,0.0000,-0.7324,idle
2610186,-0.8326,-0.4938,0.2395,0.6104,0.0610,-1.0376,idle
2610206,-0.8326,-0.4946,0.2395,0.7935,0.1831,-0.9766,idle
2610216,-0.8323,-0.4940,0.2404,0.7324,-0.0610,-0.9766,idle
2610226,-0.8324,-0.4943,0.2388,0.7324,-0.1221,-0.8545,idle
2610236,-0.8311,-0.4946,0.2385,0.4883,0.0000,-0.8545,idle
2610246,-0.8317,-0.4939,0.2386,0.3052,0.7935,-1.0376,idle
2610256,-0.8303,-0.4963,0.2400,0.7935,-0.1831,-0.9155,idle
2610266,-0.8300,-0.4946,0.2401,0.7935,-0.3662,-0.7935,idle
2610276,-0.8309,-0.4963,0.2388,0.6714,-0.3662,-0.6714,idle
2610286,-0.8318,-0.4962,0.2396,0.6104,-0.4272,-0.7324,idle
2610296,-0.8326,-0.4955,0.2395,0.6104,-0.2441,-0.7324,idle
2610306,-0.8330,-0.4967,0.2378,0.3052,-0.3052,-0.7324,idle
2610316,-0.8331,-0.4949,0.2396,-0.0610,0.3662,-0.7935,idle
2610326,-0.8296,-0.4924,0.2423,-0.1221,0.4272,-0.7935,idle
2610336,-0.8281,-0.4918,0.2421,0.4272,-0.6714,-0.6714,idle
2610346,-0.8293,-0.4927,0.2424,0.2441,-0.4883,-0.7935,idle
